Task,Trial Type,PPnr,accuracy,reaction_time
long cue,dual feature,R_08x3yfNtCFtgBYl,NaN,NaN
long cue,dual feature,R_0OmSAzFURsT3hND,NaN,NaN
long cue,dual feature,R_10ZPMCCzcV8FG6A,NaN,NaN
long cue,dual feature,R_12s68Ligswec1t3,NaN,NaN
long cue,dual feature,R_1BPAkPhD282eIwa,NaN,NaN
long cue,dual feature,R_1CDQa7qsN9RNzFH,NaN,NaN
long cue,dual feature,R_1CJcSTbRoTUCqgI,NaN,NaN
long cue,dual feature,R_1cUmxE0nB0eQ5tx,NaN,NaN
long cue,dual feature,R_1cUnP5PoHL3kGw8,NaN,NaN
long cue,dual feature,R_1cZYqPuI2ovCe8d,NaN,NaN
long cue,dual feature,R_1DuNzuDT2Ly6aYo,NaN,NaN
long cue,dual feature,R_1Ej3yOyXSRu4rHj,NaN,NaN
long cue,dual feature,R_1eK9C4dUWMG5UoE,NaN,NaN
long cue,dual feature,R_1erta2V92H4drrE,NaN,NaN
long cue,dual feature,R_1ex76BKICzdLpi3,NaN,NaN
long cue,dual feature,R_1flJVVkbxzk1i5c,NaN,NaN
long cue,dual feature,R_1g6KjG4gA3vEJF7,NaN,NaN
long cue,dual feature,R_1gHKNsWNE1ugMUa,NaN,NaN
long cue,dual feature,R_1HkLtKPGeWEXFwg,NaN,NaN
long cue,dual feature,R_1HpZbLVjg7CUvTk,NaN,NaN
long cue,dual feature,R_1hzkst2wvP8JIH4,NaN,NaN
long cue,dual feature,R_1IfTVw1P9JXGPqL,NaN,NaN
long cue,dual feature,R_1imoeufCHjjazMW,NaN,NaN
long cue,dual feature,R_1IR8kofj9wFWdIF,NaN,NaN
long cue,dual feature,R_1ISOn43feC1HgrC,NaN,NaN
long cue,dual feature,R_1IXVr7a4rbLclDy,NaN,NaN
long cue,dual feature,R_1jCgwQdSLoXJHUV,NaN,NaN
long cue,dual feature,R_1jDKVL7IiGl9Yg2,NaN,NaN
long cue,dual feature,R_1jE8xih7Lg9IirX,NaN,NaN
long cue,dual feature,R_1jH3pdKIvdSHNIY,NaN,NaN
long cue,dual feature,R_1jrzi2l761541zF,NaN,NaN
long cue,dual feature,R_1K3eLYRF0WM0F1x,NaN,NaN
long cue,dual feature,R_1K6KGucq5uhaFzv,NaN,NaN
long cue,dual feature,R_1K71a7Ou0dd9RDl,NaN,NaN
long cue,dual feature,R_1KqDdYqdsxJyWIf,NaN,NaN
long cue,dual feature,R_1LXmTvk5iLuGEaA,NaN,NaN
long cue,dual feature,R_1lzzukvJq3atYiQ,NaN,NaN
long cue,dual feature,R_1mC4cBupoC4tHV4,NaN,NaN
long cue,dual feature,R_1mIULYprIrOv92G,NaN,NaN
long cue,dual feature,R_1mmFOe3uknXraci,NaN,NaN
long cue,dual feature,R_1nOO1BGaTXG8VNZ,NaN,NaN
long cue,dual feature,R_1nOQ0qbgqQcSRz6,NaN,NaN
long cue,dual feature,R_1OkOyQCupky29ws,NaN,NaN
long cue,dual feature,R_1OVnUIQoDvuoLoa,NaN,NaN
long cue,dual feature,R_1PemspRhIIq93Jq,NaN,NaN
long cue,dual feature,R_1pMrEEZMbPml0WU,NaN,NaN
long cue,dual feature,R_1pukYYnbpsfMrZv,NaN,NaN
long cue,dual feature,R_1PXVhaM73VwX7i7,NaN,NaN
long cue,dual feature,R_1QDSGYxg9iGBQ1N,NaN,NaN
long cue,dual feature,R_1qXpoOypYbjTRWl,NaN,NaN
long cue,dual feature,R_1rla5wg2eJeofgU,NaN,NaN
long cue,dual feature,R_1rvojTzRtsDhwWZ,NaN,NaN
long cue,dual feature,R_1XqCDwzg1i2Esxj,NaN,NaN
long cue,dual feature,R_20Mv4w5vYeNCTls,NaN,NaN
long cue,dual feature,R_23TwjQv7jVMZAHh,NaN,NaN
long cue,dual feature,R_24HieJfWwUqqVSw,NaN,NaN
long cue,dual feature,R_24jTtLg98nGv99c,NaN,NaN
long cue,dual feature,R_25BzCJwLFrqdpOi,NaN,NaN
long cue,dual feature,R_27EkFokF3zDCAFg,NaN,NaN
long cue,dual feature,R_27HkygMlXuzFDss,NaN,NaN
long cue,dual feature,R_28B8ByTcmPbYYBi,NaN,NaN
long cue,dual feature,R_290a4seCfd02VPe,NaN,NaN
long cue,dual feature,R_29buJYsXisup2Mb,NaN,NaN
long cue,dual feature,R_2aDYCLDeHnDcoTK,NaN,NaN
long cue,dual feature,R_2AZHWSSUZ7gAeVu,NaN,NaN
long cue,dual feature,R_2BnRYuqRU9MgxDH,NaN,NaN
long cue,dual feature,R_2BtIrCsNLg3M5Hv,NaN,NaN
long cue,dual feature,R_2c6m9mRMP3vRtxF,NaN,NaN
long cue,dual feature,R_2cc7FPRMpuGx2CV,NaN,NaN
long cue,dual feature,R_2CDt4ymTrZ6kFn0,NaN,NaN
long cue,dual feature,R_2cnGgIRvbYUU2JM,NaN,NaN
long cue,dual feature,R_2cvhE0HTQ1JO49j,NaN,NaN
long cue,dual feature,R_2dYKuSke1t2VOfa,NaN,NaN
long cue,dual feature,R_2f6VCNeHmcSqTrE,NaN,NaN
long cue,dual feature,R_2fD1bJjW95gw3LB,NaN,NaN
long cue,dual feature,R_2P1NXSwrNBPPbSy,NaN,NaN
long cue,dual feature,R_2P5OftLBu8Xnm63,NaN,NaN
long cue,dual feature,R_2pJiC30bA23mBP9,NaN,NaN
long cue,dual feature,R_2QggTeu9uNjR2Kz,NaN,NaN
long cue,dual feature,R_2Qn8nKQlmurWj6x,NaN,NaN
long cue,dual feature,R_2qxGC4cTbe7xhyS,NaN,NaN
long cue,dual feature,R_2R81qJfBkmFANkJ,NaN,NaN
long cue,dual feature,R_2rVd3Udq0Naa4tm,NaN,NaN
long cue,dual feature,R_2s5BrOZwyfMmXNT,NaN,NaN
long cue,dual feature,R_2saKX0rCpQMSpWC,NaN,NaN
long cue,dual feature,R_2sZwXaQWcDrXX4J,NaN,NaN
long cue,dual feature,R_2t2RITW5Msrt0v1,NaN,NaN
long cue,dual feature,R_2t8PKxoTop4myWX,NaN,NaN
long cue,dual feature,R_2TvjCe31vsmiZgF,NaN,NaN
long cue,dual feature,R_2tzNr5GcFWibgNj,NaN,NaN
long cue,dual feature,R_2uaROXK2JM6R5KN,NaN,NaN
long cue,dual feature,R_2uEyL6gg252E1VJ,NaN,NaN
long cue,dual feature,R_2uPd3IAgL1aElYJ,NaN,NaN
long cue,dual feature,R_2UYj6qVJqb6JhXS,NaN,NaN
long cue,dual feature,R_2v1EkCyV15Ok7D5,NaN,NaN
long cue,dual feature,R_2v6M4LykwnHQpey,NaN,NaN
long cue,dual feature,R_2wgkGKCmXhgbs6f,NaN,NaN
long cue,dual feature,R_2whKJfx0Nt043dd,NaN,NaN
long cue,dual feature,R_2xIZjV9sIl4RF6P,NaN,NaN
long cue,dual feature,R_2xxfsrIN77B2IyP,NaN,NaN
long cue,dual feature,R_2Y5SgzE2hzm4IzP,NaN,NaN
long cue,dual feature,R_2zMG3pjpYVG6q9D,NaN,NaN
long cue,dual feature,R_2zZOxm6mvhN3djv,NaN,NaN
long cue,dual feature,R_31HQAyCP0raT1FV,NaN,NaN
long cue,dual feature,R_32Ph5gf2egyE3BQ,NaN,NaN
long cue,dual feature,R_32SfLOnCsAkGpkr,NaN,NaN
long cue,dual feature,R_389Zio7QxIjX2Gl,NaN,NaN
long cue,dual feature,R_3CE2psUILAye8Gw,NaN,NaN
long cue,dual feature,R_3CQ5KT4CZBYWAlC,NaN,NaN
long cue,dual feature,R_3dG1KAXAFwYYSNa,NaN,NaN
long cue,dual feature,R_3dYB6FtZaYKmnQI,NaN,NaN
long cue,dual feature,R_3ekQwKF3mgu5b6t,NaN,NaN
long cue,dual feature,R_3emJvrH8C0R8XAf,NaN,NaN
long cue,dual feature,R_3EnIpSKfpoFxj4q,NaN,NaN
long cue,dual feature,R_3F4Nuu63mcg282m,NaN,NaN
long cue,dual feature,R_3fekyhJ51vsHhVz,NaN,NaN
long cue,dual feature,R_3huTrvGn33dOCmD,NaN,NaN
long cue,dual feature,R_3hxsgJPCQz6ODRf,NaN,NaN
long cue,dual feature,R_3I6Ku341O3voRKF,NaN,NaN
long cue,dual feature,R_3IawjgtbqJ8vZS1,NaN,NaN
long cue,dual feature,R_3IbLExNViiL7Wmj,NaN,NaN
long cue,dual feature,R_3isy7djZDjX51Zy,NaN,NaN
long cue,dual feature,R_3iUBe2A2sqTNxe6,NaN,NaN
long cue,dual feature,R_3J5dZzQpHZlbptE,NaN,NaN
long cue,dual feature,R_3J7WamqLp1arSYg,NaN,NaN
long cue,dual feature,R_3J8imcd2CT8E7nV,NaN,NaN
long cue,dual feature,R_3JepjzwRIn4QNMa,NaN,NaN
long cue,dual feature,R_3JKuKZTaXlZlS9L,NaN,NaN
long cue,dual feature,R_3L0GKcwhfD3ONGp,NaN,NaN
long cue,dual feature,R_3L8bKSLPWWYQbb1,NaN,NaN
long cue,dual feature,R_3lA2P9y5IuW1K16,NaN,NaN
long cue,dual feature,R_3lQSewC3zD0cqPm,NaN,NaN
long cue,dual feature,R_3lW8WmUtn8ktnqb,NaN,NaN
long cue,dual feature,R_3LYmXrQqAEkquZp,NaN,NaN
long cue,dual feature,R_3m29EB99jBC3eYM,NaN,NaN
long cue,dual feature,R_3mfrYYubAvKcVXD,NaN,NaN
long cue,dual feature,R_3MrsBALpPMDdc4K,NaN,NaN
long cue,dual feature,R_3MsZ1FtrecdI6Bk,NaN,NaN
long cue,dual feature,R_3ni4oB2dXSyqVt5,NaN,NaN
long cue,dual feature,R_3NLrAGnHeCcusnN,NaN,NaN
long cue,dual feature,R_3nTN2on5k76PSqy,NaN,NaN
long cue,dual feature,R_3nuRnyn8F7V1zzY,NaN,NaN
long cue,dual feature,R_3nvCR77A2gIXUnU,NaN,NaN
long cue,dual feature,R_3OijgTkqK3N1vDR,NaN,NaN
long cue,dual feature,R_3PH8KwGY7M572k7,NaN,NaN
long cue,dual feature,R_3PhNSDcozSxV4x6,NaN,NaN
long cue,dual feature,R_3PHnuh1NwQxBUke,NaN,NaN
long cue,dual feature,R_3plRloA3DMCWRlm,NaN,NaN
long cue,dual feature,R_3PoF0xbH4zPk6H9,NaN,NaN
long cue,dual feature,R_3PUkBY8ioPt2QHk,NaN,NaN
long cue,dual feature,R_3qE9UFs34ohzB4u,NaN,NaN
long cue,dual feature,R_3qIGvV1gBPeGAF3,NaN,NaN
long cue,dual feature,R_3qqgOHNsjhwxEbU,NaN,NaN
long cue,dual feature,R_3r1hJN0OmOW9eWt,NaN,NaN
long cue,dual feature,R_3r2uzs1xxGdN7Xt,NaN,NaN
long cue,dual feature,R_3R2V7o3AKvD3riN,NaN,NaN
long cue,dual feature,R_3sgjFLFAcfatVu1,NaN,NaN
long cue,dual feature,R_3snnTFxEmMWchE3,NaN,NaN
long cue,dual feature,R_4HGqzV1TmoKnmRb,NaN,NaN
long cue,dual feature,R_4UcujUnUkeMAjcd,NaN,NaN
long cue,dual feature,R_5AccJZEMv9dA7ZL,NaN,NaN
long cue,dual feature,R_5Bl0sD2ma6kOenD,NaN,NaN
long cue,dual feature,R_6QoG7SGfNSA5MY1,NaN,NaN
long cue,dual feature,R_78aLaJZ9ov7E4z7,NaN,NaN
long cue,dual feature,R_7QYLh7Cv4ho9ne9,NaN,NaN
long cue,dual feature,R_8039DfpRFz4mdlD,NaN,NaN
long cue,dual feature,R_81zsKze4hKiO3Ch,NaN,NaN
long cue,dual feature,R_821ywZ3Ur7opgmR,NaN,NaN
long cue,dual feature,R_8qYu2CCKRBiPBjb,NaN,NaN
long cue,dual feature,R_AhqftoXBoaz9xId,NaN,NaN
long cue,dual feature,R_aXyHoAyLu9CDc4N,NaN,NaN
long cue,dual feature,R_BEpHnJisiwxS1z3,NaN,NaN
long cue,dual feature,R_bj5pW4Iu3tLbUnT,NaN,NaN
long cue,dual feature,R_bJ8LN8hW9Wr5SFj,NaN,NaN
long cue,dual feature,R_BV2jiQRnLfyGBYl,NaN,NaN
long cue,dual feature,R_Cjijzqk1J6xkLdf,NaN,NaN
long cue,dual feature,R_d6C5372Rri91D57,NaN,NaN
long cue,dual feature,R_DcbIYJJOl9NfnSV,NaN,NaN
long cue,dual feature,R_dh9Z16ZeR9OmSJj,NaN,NaN
long cue,dual feature,R_dm7E2sdo1YUjT3z,NaN,NaN
long cue,dual feature,R_dmY5Tc0WANqnPs5,NaN,NaN
long cue,dual feature,R_eai96tm4PUo2JmF,NaN,NaN
long cue,dual feature,R_eJrfTYcTp9qL7ix,NaN,NaN
long cue,dual feature,R_eyNfgTiSRXT8Xi9,NaN,NaN
long cue,dual feature,R_O0WT1fmWD73IgCZ,NaN,NaN
long cue,dual feature,R_Ope2sXA3sL6z35T,NaN,NaN
long cue,dual feature,R_PA36VyjszG9W9gt,NaN,NaN
long cue,dual feature,R_pufazghR2YH4Vqx,NaN,NaN
long cue,dual feature,R_PYUFtJ6v69P19WF,NaN,NaN
long cue,dual feature,R_Q3QAyLhzVGkm1hL,NaN,NaN
long cue,dual feature,R_r25ZrJt80L0xZ5v,NaN,NaN
long cue,dual feature,R_sZRf0Q5e9LGW9gJ,NaN,NaN
long cue,dual feature,R_tLqTSkDsUZvWP4t,NaN,NaN
long cue,dual feature,R_tQjTkAdN6h1rHHP,NaN,NaN
long cue,dual feature,R_UA47gf9TzaRpJ0B,NaN,NaN
long cue,dual feature,R_UnfbYQPONiXwHgB,NaN,NaN
long cue,dual feature,R_vcofmMoT48YgqGd,NaN,NaN
long cue,dual feature,R_vdAXj8lKTQiuvLj,NaN,NaN
long cue,dual feature,R_vl7yAhjMq73ut4l,NaN,NaN
long cue,dual feature,R_VPabY1AJYIyCZPz,NaN,NaN
long cue,dual feature,R_W8LdRMuNzFlfzfX,NaN,NaN
long cue,dual feature,R_WfBh84bVieh94u5,NaN,NaN
long cue,dual feature,R_xfUcAaPbjk0g6Jz,NaN,NaN
long cue,dual feature,R_Y050be3d1qTgt21,NaN,NaN
long cue,dual feature,R_ykzlIRPd0KX2ZW1,NaN,NaN
long cue,dual feature,R_ypQ4ZCs1p2l24eJ,NaN,NaN
long cue,dual feature,R_yPWGGeD3XC6CB0t,NaN,NaN
long cue,dual feature,R_1240oKwSUYFSJUY,1,0.564
long cue,dual feature,R_125qGAPsEKNgCik,0.875,0.835
long cue,dual feature,R_1BYsxPc3DVzRRdc,1,1.17
long cue,dual feature,R_1C4075atnBURXV9,0.938,0.709
long cue,dual feature,R_1Ca7oDDfGUuqpD2,0.938,0.906
long cue,dual feature,R_1DUQTsUdLXCAotg,0.938,0.781
long cue,dual feature,R_1Ed18J86Ydnz5JK,0.875,1.15
long cue,dual feature,R_1F3O1RwVVn1ANjS,0.938,1.15
long cue,dual feature,R_1fd9g37kVcLlQon,0.938,0.841
long cue,dual feature,R_1fjeMABd9YtFdM2,1,0.977
long cue,dual feature,R_1FkyCxrQzCKlVM3,0.875,0.954
long cue,dual feature,R_1FlZaoI26lrL1xW,0.875,0.821
long cue,dual feature,R_1FQy7LAFBlt3sbw,0.938,1.02
long cue,dual feature,R_1FzvTdctlBl6mau,0.875,0.983
long cue,dual feature,R_1GEw2ntVr6WT5FY,1,0.545
long cue,dual feature,R_1gGFiI9dwPgNWnF,0.813,0.654
long cue,dual feature,R_1gTnf5neAjKhFhT,0.625,1.22
long cue,dual feature,R_1H5WiYRCLXLoMr6,1,0.946
long cue,dual feature,R_1hKL5I25Q84xW4U,0.813,2.11
long cue,dual feature,R_1hXp8VCud7SMiKb,0.938,0.654
long cue,dual feature,R_1IagvrDfWeu1SzI,0.938,1.21
long cue,dual feature,R_1iffR2ZzRyikKgD,0.875,0.805
long cue,dual feature,R_1jrMskfuP7Mrr9S,0.938,0.451
long cue,dual feature,R_1K2LTDdSTkk0CkO,0.875,0.85
long cue,dual feature,R_1KkDDjZQonL8jXf,0.938,1.23
long cue,dual feature,R_1lo8TnSLVLCPrMI,0.938,1.04
long cue,dual feature,R_1Nex25Z07JEPqPT,1,0.894
long cue,dual feature,R_1oAMtAsotlpba75,1,0.791
long cue,dual feature,R_1oBEFfxegvaFxqs,0.938,0.826
long cue,dual feature,R_1OE6gsnJdCYDJNp,0.875,1.33
long cue,dual feature,R_1OJJIMbAOHmEsc6,0.875,0.729
long cue,dual feature,R_1onlnd0PSlmh0kP,1,0.949
long cue,dual feature,R_1Oy5gti2oOMkrmx,0.938,1.28
long cue,dual feature,R_1pJPjmN0ZA5yTy2,0.938,1.83
long cue,dual feature,R_1ptx896QKfU4151,0.75,1.04
long cue,dual feature,R_1Q0nnQSbpfMIzl8,0.75,2.06
long cue,dual feature,R_1QcQ8lM8sMgbe9Z,1,0.598
long cue,dual feature,R_1QhHQgn3oncjPVH,1,0.649
long cue,dual feature,R_1r9CI6AFSBMawII,0.875,0.679
long cue,dual feature,R_2107Kbqwjw5sjVi,1,0.513
long cue,dual feature,R_21A0Opwy47DGP0D,0.938,0.635
long cue,dual feature,R_21ixygMv7kGQldy,1,0.65
long cue,dual feature,R_232mnWKrVorZxtV,0.938,1.22
long cue,dual feature,R_23UGi46yIwlgRIg,0.938,0.736
long cue,dual feature,R_23V6KyyFTKNSfr0,0.938,1.17
long cue,dual feature,R_24f2Xj2zVejGVvr,0.938,0.633
long cue,dual feature,R_24MjDzYaj8vSl2F,1,1.02
long cue,dual feature,R_26aTxals5ya98Bn,0.875,0.69
long cue,dual feature,R_27I2lMBC4C9HqXh,0.875,0.712
long cue,dual feature,R_27IKiFTRUeouja1,0.8,1.11
long cue,dual feature,R_27TjhkHUtsmEKXv,0.75,1.3
long cue,dual feature,R_29buiFpEHzEyviM,1,0.704
long cue,dual feature,R_2AGbTgxStxS8OK7,0.938,0.836
long cue,dual feature,R_2ASEGOsJ8SHSVr5,0.938,1.12
long cue,dual feature,R_2bHPDYy6X92e2YW,1,0.825
long cue,dual feature,R_2Bu63NcF98ifXiE,1,0.74
long cue,dual feature,R_2CTk31LB5KSXTUK,1,0.423
long cue,dual feature,R_2cubeyiZDy5kcWK,0.938,0.87
long cue,dual feature,R_2D5fuTu0fyLlRoG,0.938,0.767
long cue,dual feature,R_2dH0HFAfxeETPyV,0.938,0.871
long cue,dual feature,R_2diq2w8gEnf5L8z,0.938,0.73
long cue,dual feature,R_2DRKnOvAi7cEOEe,1,0.471
long cue,dual feature,R_2e2xTrAELL35qnU,0.938,0.896
long cue,dual feature,R_2EAwGG7T8u9elvy,0.938,0.506
long cue,dual feature,R_2EGbNncbkrLeOBn,0.813,0.883
long cue,dual feature,R_2fBULLTffGRBWLb,0.938,1.13
long cue,dual feature,R_2fesTAMA2X5bx5T,1,0.467
long cue,dual feature,R_2fvMbaH7XgyVyCF,0.938,1.11
long cue,dual feature,R_2PutYEFsewiz88m,1,1.42
long cue,dual feature,R_2PzXxMCgeJjWWLk,1,0.653
long cue,dual feature,R_2q9ip8BsXKWy3tB,0.938,0.917
long cue,dual feature,R_2qCYwbcshBGMWl9,0.875,0.742
long cue,dual feature,R_2RPRywAKJIJoXwq,1,0.705
long cue,dual feature,R_2sSBN4IUEWRzEHE,0.813,1.47
long cue,dual feature,R_2t3eKQMwJ13cTxu,0.875,0.813
long cue,dual feature,R_2t5VMWadJZXwhol,0.938,0.764
long cue,dual feature,R_2tKElLKJ2RzYeOL,0.875,1.11
long cue,dual feature,R_2TOewpP52D1ZcQi,0.938,0.728
long cue,dual feature,R_2TvIpggb40wzcMj,0.813,0.675
long cue,dual feature,R_2Ugx54Yz1N7CJ36,1,0.506
long cue,dual feature,R_2UWLzuZCkACVgCP,1,0.943
long cue,dual feature,R_2uZFhWaBfnO4ECU,0.938,1.4
long cue,dual feature,R_2VBBNsozbzxpfT9,0.938,0.582
long cue,dual feature,R_2Vx6MwTvzph2nt3,1,0.597
long cue,dual feature,R_2w5NkTjpk5sIZmL,0.875,0.689
long cue,dual feature,R_2z5D2HPnn3XvNKK,0.875,1.19
long cue,dual feature,R_2z5xbqVjjSIyJdo,1,0.916
long cue,dual feature,R_2zAzUdW0VLW47Ua,0.938,0.631
long cue,dual feature,R_2zOyxhAfuZbfaqm,1,1.41
long cue,dual feature,R_302H874OqnSbmug,0.75,0.978
long cue,dual feature,R_3061vbhI41l7m5V,0.75,0.94
long cue,dual feature,R_31zRT6XRWDLt6XR,0.938,0.871
long cue,dual feature,R_325E8Zcstn7PYYf,0.813,0.932
long cue,dual feature,R_32X7zIltyrBl2XJ,0.813,1.22
long cue,dual feature,R_33gvmuPR94pwSQR,0.938,1.2
long cue,dual feature,R_33wriurPRqAICJQ,1,0.797
long cue,dual feature,R_3CH6GYzeXMmQ3BR,0.875,0.656
long cue,dual feature,R_3dYRf1LJJY5sNDQ,1,0.564
long cue,dual feature,R_3dYYZ1eB57mzvcP,0.938,0.767
long cue,dual feature,R_3E9zqUUokucmyvi,0.75,1.03
long cue,dual feature,R_3EXNIE6ibfayydJ,1,0.548
long cue,dual feature,R_3F54OWKljGjDYun,0.938,0.593
long cue,dual feature,R_3fftJphDI5wp8jD,0.875,1.27
long cue,dual feature,R_3fIafKngtt8LCdv,1,0.728
long cue,dual feature,R_3G3aqKAxalampJB,0.875,0.555
long cue,dual feature,R_3GfEE0tSJtpYpDK,1,0.842
long cue,dual feature,R_3gMLdLQylpAUOCz,0.938,0.723
long cue,dual feature,R_3GrJEh3BPMqoUIE,0.938,0.935
long cue,dual feature,R_3gSdxynZBUsA24l,1,0.92
long cue,dual feature,R_3GwicDp1Qe1fIYu,0.938,1.09
long cue,dual feature,R_3Hov1y7dOtcDZlE,0.938,1.39
long cue,dual feature,R_3Ht3R1VCyo41bf7,0.9,0.641
long cue,dual feature,R_3Hzu7sZLBROTBKI,0.938,1.15
long cue,dual feature,R_3Ic5XcXj3i1cbFL,0.938,0.63
long cue,dual feature,R_3iFr8MpMy69byrN,1,1.2
long cue,dual feature,R_3j0uBCOqMwUzlCW,0.938,1.1
long cue,dual feature,R_3j9ApP6uO0ORpcw,1,0.804
long cue,dual feature,R_3jAe4d8aowHEK53,0.938,1.8
long cue,dual feature,R_3JCQVowq4SWDWhO,1,0.557
long cue,dual feature,R_3JCuHa99Y2UioVU,0.938,1.17
long cue,dual feature,R_3jSRUtmlwcSos3T,1,0.515
long cue,dual feature,R_3jZIGhpufmzSmRG,1,1.63
long cue,dual feature,R_3kANJhWZWQZHHzt,0.938,1.2
long cue,dual feature,R_3kAQUBQH7gOE6L4,1,0.765
long cue,dual feature,R_3koHaaGXSWbfZCH,0.938,0.633
long cue,dual feature,R_3kq4Tx7qydJo7oB,1,1.21
long cue,dual feature,R_3KxCDvIBCFGJlB2,1,0.641
long cue,dual feature,R_3lQ7ThL8ft9I4Xd,0.938,0.859
long cue,dual feature,R_3lQY2j5LMIXXK4u,0.875,0.603
long cue,dual feature,R_3lxHPjKjHR4VSZX,0.813,1.08
long cue,dual feature,R_3M5rXHlsQsfCfZ1,1,1.03
long cue,dual feature,R_3NDueluChz5YLcK,0.813,0.866
long cue,dual feature,R_3nGjakNTDKLeUI5,0.875,1.34
long cue,dual feature,R_3nj6domOVc1jJjN,0.813,1.03
long cue,dual feature,R_3NJrbvniVjhQgVe,1,1.56
long cue,dual feature,R_3NUHxGL0DDAFsRc,0.875,1.51
long cue,dual feature,R_3NV3o9ELxm8q0OB,1,0.596
long cue,dual feature,R_3paGJTFEkF29ztH,1,0.52
long cue,dual feature,R_3peQmhVVM6LZ8Rq,0.813,1.12
long cue,dual feature,R_3PzqcG3ePjyMVoQ,0.875,1.1
long cue,dual feature,R_3qU5FwC4OCJ7aqk,0.813,0.534
long cue,dual feature,R_3Rl6FSFxxA5e8ma,0.938,1.19
long cue,dual feature,R_3Rl6VEWOBQmKqU6,1,0.619
long cue,dual feature,R_3RmwoIz93sstbuX,1,0.707
long cue,dual feature,R_3svpurCda9KfwHp,1,0.88
long cue,dual feature,R_3Vm6NBKASkpNULn,0.813,1.79
long cue,dual feature,R_4MlrIKWtWMynXgJ,0.938,0.805
long cue,dual feature,R_4V0pQt6VgkQw0lb,1,1.06
long cue,dual feature,R_5zD75iREBKTihMt,1,0.676
long cue,dual feature,R_6AkMGcTw5XpOoSd,1,1.37
long cue,dual feature,R_87dG0u6RSBe8bpD,0.938,0.557
long cue,dual feature,R_88lRNtWC8jzcvPr,1,0.622
long cue,dual feature,R_9SIq53ZIw0UeCMp,0.875,0.701
long cue,dual feature,R_9ZV7VYa4WgGSoPT,1,0.444
long cue,dual feature,R_a8Keqoc6RqZXPj3,0.438,1.41
long cue,dual feature,R_AFYcy8WqCbGhYSB,0.938,0.684
long cue,dual feature,R_b1xBevGuDlgE5mp,1,0.628
long cue,dual feature,R_bxcuLDEvGbOnKHT,0.75,1.67
long cue,dual feature,R_ClZZ8iH4ih5ZuSd,0.938,1.69
long cue,dual feature,R_dfYxqvX4G98rUXL,0.938,0.901
long cue,dual feature,R_eKdyzfVrqfswb1n,1,1.52
long cue,dual feature,R_esMmOCJbTcEsIq5,0.875,1.01
long cue,dual feature,R_O0SCTkaxAB7vjA5,0.938,0.906
long cue,dual feature,R_OBikbvVJp5ZcCOt,1,0.775
long cue,dual feature,R_OjUO1JZhl881Wdr,0.875,0.635
long cue,dual feature,R_OkxFT8Yi5pR6dsB,0.875,1.07
long cue,dual feature,R_OPCfSDjGV5SHORr,1,0.762
long cue,dual feature,R_pEoe2uY6YbOw3aF,0.813,0.492
long cue,dual feature,R_PIpINaW6xp0qDD3,0.938,0.66
long cue,dual feature,R_pK7U209871YpYIN,1,1.49
long cue,dual feature,R_pngU1YVfrXpM6m5,0.938,0.479
long cue,dual feature,R_PSSk558zgwsdfq1,0.813,1.26
long cue,dual feature,R_pT8XhCOwudJrdq9,0.875,0.793
long cue,dual feature,R_Pwhzf2X9FTJWwcp,0.938,0.533
long cue,dual feature,R_qL4FaXWkk1AqEmt,0.875,2.21
long cue,dual feature,R_QoG98GIXlyTTQCB,0.938,0.783
long cue,dual feature,R_R838SwdXuvvg13j,1,0.914
long cue,dual feature,R_rcHQpWAv7AbsluV,0.875,0.769
long cue,dual feature,R_rkiqrtdH01X2Uz7,0.813,1.05
long cue,dual feature,R_rpa23bPTMqxRuy5,0.938,1.12
long cue,dual feature,R_RPRRh5b9RJjsLWF,0.938,2.29
long cue,dual feature,R_RxCmnVP4h0M2Iet,0.625,0.966
long cue,dual feature,R_SUAv0Djpf96vXsB,0.938,0.955
long cue,dual feature,R_szedVFAI7mc8uqt,1,0.583
long cue,dual feature,R_TjDuFk15r39Xrqh,0.75,0.68
long cue,dual feature,R_u220n4MBxTrGIqB,1,1.07
long cue,dual feature,R_uk7jLfoyyvrie5P,0.938,0.681
long cue,dual feature,R_uk8lyne8BTwZWx3,0.938,0.645
long cue,dual feature,R_vcRLjOIJganFB5L,1,0.883
long cue,dual feature,R_vf2rDe2loSzFI4h,1,1.58
long cue,dual feature,R_vMGeXCE2A7fFihP,0.938,1.03
long cue,dual feature,R_VO1OFG6TLIlFTbj,0.938,1.34
long cue,dual feature,R_voSsFXEsEVlpeMx,0.938,0.989
long cue,dual feature,R_xaQjSryVetgbxMR,0.938,1.27
long cue,dual feature,R_xiuZL8oQedG2nrb,1,0.742
long cue,dual feature,R_Y3NmOCLnLbfmdRT,0.875,0.614
long cue,dual feature,R_ykWwfg34VBujl0B,0.938,0.98
long cue,dual feature,R_yPWVvpu60ycQ8P7,0.75,0.968
long cue,dual feature,R_z0je8cRGh1eQ8Rb,1,0.847
long cue,dual feature,R_Z9PxP0CExYG8397,1,0.49
long cue,dual feature,R_ZahaFNCfOgy05xL,0.875,1.17
long cue,dual feature,R_ZaxZDyOScZVjzz3,0.875,0.96
long cue,dual feature,R_zZ3GrNWCcyKf98B,0.938,0.917
long cue,single feature,R_08x3yfNtCFtgBYl,NaN,NaN
long cue,single feature,R_0OmSAzFURsT3hND,NaN,NaN
long cue,single feature,R_10ZPMCCzcV8FG6A,NaN,NaN
long cue,single feature,R_12s68Ligswec1t3,NaN,NaN
long cue,single feature,R_1BPAkPhD282eIwa,NaN,NaN
long cue,single feature,R_1CDQa7qsN9RNzFH,NaN,NaN
long cue,single feature,R_1CJcSTbRoTUCqgI,NaN,NaN
long cue,single feature,R_1cUmxE0nB0eQ5tx,NaN,NaN
long cue,single feature,R_1cUnP5PoHL3kGw8,NaN,NaN
long cue,single feature,R_1cZYqPuI2ovCe8d,NaN,NaN
long cue,single feature,R_1DuNzuDT2Ly6aYo,NaN,NaN
long cue,single feature,R_1Ej3yOyXSRu4rHj,NaN,NaN
long cue,single feature,R_1eK9C4dUWMG5UoE,NaN,NaN
long cue,single feature,R_1erta2V92H4drrE,NaN,NaN
long cue,single feature,R_1ex76BKICzdLpi3,NaN,NaN
long cue,single feature,R_1flJVVkbxzk1i5c,NaN,NaN
long cue,single feature,R_1g6KjG4gA3vEJF7,NaN,NaN
long cue,single feature,R_1gHKNsWNE1ugMUa,NaN,NaN
long cue,single feature,R_1HkLtKPGeWEXFwg,NaN,NaN
long cue,single feature,R_1HpZbLVjg7CUvTk,NaN,NaN
long cue,single feature,R_1hzkst2wvP8JIH4,NaN,NaN
long cue,single feature,R_1IfTVw1P9JXGPqL,NaN,NaN
long cue,single feature,R_1imoeufCHjjazMW,NaN,NaN
long cue,single feature,R_1IR8kofj9wFWdIF,NaN,NaN
long cue,single feature,R_1ISOn43feC1HgrC,NaN,NaN
long cue,single feature,R_1IXVr7a4rbLclDy,NaN,NaN
long cue,single feature,R_1jCgwQdSLoXJHUV,NaN,NaN
long cue,single feature,R_1jDKVL7IiGl9Yg2,NaN,NaN
long cue,single feature,R_1jE8xih7Lg9IirX,NaN,NaN
long cue,single feature,R_1jH3pdKIvdSHNIY,NaN,NaN
long cue,single feature,R_1jrzi2l761541zF,NaN,NaN
long cue,single feature,R_1K3eLYRF0WM0F1x,NaN,NaN
long cue,single feature,R_1K6KGucq5uhaFzv,NaN,NaN
long cue,single feature,R_1K71a7Ou0dd9RDl,NaN,NaN
long cue,single feature,R_1KqDdYqdsxJyWIf,NaN,NaN
long cue,single feature,R_1LXmTvk5iLuGEaA,NaN,NaN
long cue,single feature,R_1lzzukvJq3atYiQ,NaN,NaN
long cue,single feature,R_1mC4cBupoC4tHV4,NaN,NaN
long cue,single feature,R_1mIULYprIrOv92G,NaN,NaN
long cue,single feature,R_1mmFOe3uknXraci,NaN,NaN
long cue,single feature,R_1nOO1BGaTXG8VNZ,NaN,NaN
long cue,single feature,R_1nOQ0qbgqQcSRz6,NaN,NaN
long cue,single feature,R_1OkOyQCupky29ws,NaN,NaN
long cue,single feature,R_1OVnUIQoDvuoLoa,NaN,NaN
long cue,single feature,R_1PemspRhIIq93Jq,NaN,NaN
long cue,single feature,R_1pMrEEZMbPml0WU,NaN,NaN
long cue,single feature,R_1pukYYnbpsfMrZv,NaN,NaN
long cue,single feature,R_1PXVhaM73VwX7i7,NaN,NaN
long cue,single feature,R_1QDSGYxg9iGBQ1N,NaN,NaN
long cue,single feature,R_1qXpoOypYbjTRWl,NaN,NaN
long cue,single feature,R_1rla5wg2eJeofgU,NaN,NaN
long cue,single feature,R_1rvojTzRtsDhwWZ,NaN,NaN
long cue,single feature,R_1XqCDwzg1i2Esxj,NaN,NaN
long cue,single feature,R_20Mv4w5vYeNCTls,NaN,NaN
long cue,single feature,R_23TwjQv7jVMZAHh,NaN,NaN
long cue,single feature,R_24HieJfWwUqqVSw,NaN,NaN
long cue,single feature,R_24jTtLg98nGv99c,NaN,NaN
long cue,single feature,R_25BzCJwLFrqdpOi,NaN,NaN
long cue,single feature,R_27EkFokF3zDCAFg,NaN,NaN
long cue,single feature,R_27HkygMlXuzFDss,NaN,NaN
long cue,single feature,R_28B8ByTcmPbYYBi,NaN,NaN
long cue,single feature,R_290a4seCfd02VPe,NaN,NaN
long cue,single feature,R_29buJYsXisup2Mb,NaN,NaN
long cue,single feature,R_2aDYCLDeHnDcoTK,NaN,NaN
long cue,single feature,R_2AZHWSSUZ7gAeVu,NaN,NaN
long cue,single feature,R_2BnRYuqRU9MgxDH,NaN,NaN
long cue,single feature,R_2BtIrCsNLg3M5Hv,NaN,NaN
long cue,single feature,R_2c6m9mRMP3vRtxF,NaN,NaN
long cue,single feature,R_2cc7FPRMpuGx2CV,NaN,NaN
long cue,single feature,R_2CDt4ymTrZ6kFn0,NaN,NaN
long cue,single feature,R_2cnGgIRvbYUU2JM,NaN,NaN
long cue,single feature,R_2cvhE0HTQ1JO49j,NaN,NaN
long cue,single feature,R_2dYKuSke1t2VOfa,NaN,NaN
long cue,single feature,R_2f6VCNeHmcSqTrE,NaN,NaN
long cue,single feature,R_2fD1bJjW95gw3LB,NaN,NaN
long cue,single feature,R_2P1NXSwrNBPPbSy,NaN,NaN
long cue,single feature,R_2P5OftLBu8Xnm63,NaN,NaN
long cue,single feature,R_2pJiC30bA23mBP9,NaN,NaN
long cue,single feature,R_2QggTeu9uNjR2Kz,NaN,NaN
long cue,single feature,R_2Qn8nKQlmurWj6x,NaN,NaN
long cue,single feature,R_2qxGC4cTbe7xhyS,NaN,NaN
long cue,single feature,R_2R81qJfBkmFANkJ,NaN,NaN
long cue,single feature,R_2rVd3Udq0Naa4tm,NaN,NaN
long cue,single feature,R_2s5BrOZwyfMmXNT,NaN,NaN
long cue,single feature,R_2saKX0rCpQMSpWC,NaN,NaN
long cue,single feature,R_2sZwXaQWcDrXX4J,NaN,NaN
long cue,single feature,R_2t2RITW5Msrt0v1,NaN,NaN
long cue,single feature,R_2t8PKxoTop4myWX,NaN,NaN
long cue,single feature,R_2TvjCe31vsmiZgF,NaN,NaN
long cue,single feature,R_2tzNr5GcFWibgNj,NaN,NaN
long cue,single feature,R_2uaROXK2JM6R5KN,NaN,NaN
long cue,single feature,R_2uEyL6gg252E1VJ,NaN,NaN
long cue,single feature,R_2uPd3IAgL1aElYJ,NaN,NaN
long cue,single feature,R_2UYj6qVJqb6JhXS,NaN,NaN
long cue,single feature,R_2v1EkCyV15Ok7D5,NaN,NaN
long cue,single feature,R_2v6M4LykwnHQpey,NaN,NaN
long cue,single feature,R_2wgkGKCmXhgbs6f,NaN,NaN
long cue,single feature,R_2whKJfx0Nt043dd,NaN,NaN
long cue,single feature,R_2xIZjV9sIl4RF6P,NaN,NaN
long cue,single feature,R_2xxfsrIN77B2IyP,NaN,NaN
long cue,single feature,R_2Y5SgzE2hzm4IzP,NaN,NaN
long cue,single feature,R_2zMG3pjpYVG6q9D,NaN,NaN
long cue,single feature,R_2zZOxm6mvhN3djv,NaN,NaN
long cue,single feature,R_31HQAyCP0raT1FV,NaN,NaN
long cue,single feature,R_32Ph5gf2egyE3BQ,NaN,NaN
long cue,single feature,R_32SfLOnCsAkGpkr,NaN,NaN
long cue,single feature,R_389Zio7QxIjX2Gl,NaN,NaN
long cue,single feature,R_3CE2psUILAye8Gw,NaN,NaN
long cue,single feature,R_3CQ5KT4CZBYWAlC,NaN,NaN
long cue,single feature,R_3dG1KAXAFwYYSNa,NaN,NaN
long cue,single feature,R_3dYB6FtZaYKmnQI,NaN,NaN
long cue,single feature,R_3ekQwKF3mgu5b6t,NaN,NaN
long cue,single feature,R_3emJvrH8C0R8XAf,NaN,NaN
long cue,single feature,R_3EnIpSKfpoFxj4q,NaN,NaN
long cue,single feature,R_3F4Nuu63mcg282m,NaN,NaN
long cue,single feature,R_3fekyhJ51vsHhVz,NaN,NaN
long cue,single feature,R_3huTrvGn33dOCmD,NaN,NaN
long cue,single feature,R_3hxsgJPCQz6ODRf,NaN,NaN
long cue,single feature,R_3I6Ku341O3voRKF,NaN,NaN
long cue,single feature,R_3IawjgtbqJ8vZS1,NaN,NaN
long cue,single feature,R_3IbLExNViiL7Wmj,NaN,NaN
long cue,single feature,R_3isy7djZDjX51Zy,NaN,NaN
long cue,single feature,R_3iUBe2A2sqTNxe6,NaN,NaN
long cue,single feature,R_3J5dZzQpHZlbptE,NaN,NaN
long cue,single feature,R_3J7WamqLp1arSYg,NaN,NaN
long cue,single feature,R_3J8imcd2CT8E7nV,NaN,NaN
long cue,single feature,R_3JepjzwRIn4QNMa,NaN,NaN
long cue,single feature,R_3JKuKZTaXlZlS9L,NaN,NaN
long cue,single feature,R_3L0GKcwhfD3ONGp,NaN,NaN
long cue,single feature,R_3L8bKSLPWWYQbb1,NaN,NaN
long cue,single feature,R_3lA2P9y5IuW1K16,NaN,NaN
long cue,single feature,R_3lQSewC3zD0cqPm,NaN,NaN
long cue,single feature,R_3lW8WmUtn8ktnqb,NaN,NaN
long cue,single feature,R_3LYmXrQqAEkquZp,NaN,NaN
long cue,single feature,R_3m29EB99jBC3eYM,NaN,NaN
long cue,single feature,R_3mfrYYubAvKcVXD,NaN,NaN
long cue,single feature,R_3MrsBALpPMDdc4K,NaN,NaN
long cue,single feature,R_3MsZ1FtrecdI6Bk,NaN,NaN
long cue,single feature,R_3ni4oB2dXSyqVt5,NaN,NaN
long cue,single feature,R_3NLrAGnHeCcusnN,NaN,NaN
long cue,single feature,R_3nTN2on5k76PSqy,NaN,NaN
long cue,single feature,R_3nuRnyn8F7V1zzY,NaN,NaN
long cue,single feature,R_3nvCR77A2gIXUnU,NaN,NaN
long cue,single feature,R_3OijgTkqK3N1vDR,NaN,NaN
long cue,single feature,R_3PH8KwGY7M572k7,NaN,NaN
long cue,single feature,R_3PhNSDcozSxV4x6,NaN,NaN
long cue,single feature,R_3PHnuh1NwQxBUke,NaN,NaN
long cue,single feature,R_3plRloA3DMCWRlm,NaN,NaN
long cue,single feature,R_3PoF0xbH4zPk6H9,NaN,NaN
long cue,single feature,R_3PUkBY8ioPt2QHk,NaN,NaN
long cue,single feature,R_3qE9UFs34ohzB4u,NaN,NaN
long cue,single feature,R_3qIGvV1gBPeGAF3,NaN,NaN
long cue,single feature,R_3qqgOHNsjhwxEbU,NaN,NaN
long cue,single feature,R_3r1hJN0OmOW9eWt,NaN,NaN
long cue,single feature,R_3r2uzs1xxGdN7Xt,NaN,NaN
long cue,single feature,R_3R2V7o3AKvD3riN,NaN,NaN
long cue,single feature,R_3sgjFLFAcfatVu1,NaN,NaN
long cue,single feature,R_3snnTFxEmMWchE3,NaN,NaN
long cue,single feature,R_4HGqzV1TmoKnmRb,NaN,NaN
long cue,single feature,R_4UcujUnUkeMAjcd,NaN,NaN
long cue,single feature,R_5AccJZEMv9dA7ZL,NaN,NaN
long cue,single feature,R_5Bl0sD2ma6kOenD,NaN,NaN
long cue,single feature,R_6QoG7SGfNSA5MY1,NaN,NaN
long cue,single feature,R_78aLaJZ9ov7E4z7,NaN,NaN
long cue,single feature,R_7QYLh7Cv4ho9ne9,NaN,NaN
long cue,single feature,R_8039DfpRFz4mdlD,NaN,NaN
long cue,single feature,R_81zsKze4hKiO3Ch,NaN,NaN
long cue,single feature,R_821ywZ3Ur7opgmR,NaN,NaN
long cue,single feature,R_8qYu2CCKRBiPBjb,NaN,NaN
long cue,single feature,R_AhqftoXBoaz9xId,NaN,NaN
long cue,single feature,R_aXyHoAyLu9CDc4N,NaN,NaN
long cue,single feature,R_BEpHnJisiwxS1z3,NaN,NaN
long cue,single feature,R_bj5pW4Iu3tLbUnT,NaN,NaN
long cue,single feature,R_bJ8LN8hW9Wr5SFj,NaN,NaN
long cue,single feature,R_BV2jiQRnLfyGBYl,NaN,NaN
long cue,single feature,R_Cjijzqk1J6xkLdf,NaN,NaN
long cue,single feature,R_d6C5372Rri91D57,NaN,NaN
long cue,single feature,R_DcbIYJJOl9NfnSV,NaN,NaN
long cue,single feature,R_dh9Z16ZeR9OmSJj,NaN,NaN
long cue,single feature,R_dm7E2sdo1YUjT3z,NaN,NaN
long cue,single feature,R_dmY5Tc0WANqnPs5,NaN,NaN
long cue,single feature,R_eai96tm4PUo2JmF,NaN,NaN
long cue,single feature,R_eJrfTYcTp9qL7ix,NaN,NaN
long cue,single feature,R_eyNfgTiSRXT8Xi9,NaN,NaN
long cue,single feature,R_O0WT1fmWD73IgCZ,NaN,NaN
long cue,single feature,R_Ope2sXA3sL6z35T,NaN,NaN
long cue,single feature,R_PA36VyjszG9W9gt,NaN,NaN
long cue,single feature,R_pufazghR2YH4Vqx,NaN,NaN
long cue,single feature,R_PYUFtJ6v69P19WF,NaN,NaN
long cue,single feature,R_Q3QAyLhzVGkm1hL,NaN,NaN
long cue,single feature,R_r25ZrJt80L0xZ5v,NaN,NaN
long cue,single feature,R_sZRf0Q5e9LGW9gJ,NaN,NaN
long cue,single feature,R_tLqTSkDsUZvWP4t,NaN,NaN
long cue,single feature,R_tQjTkAdN6h1rHHP,NaN,NaN
long cue,single feature,R_UA47gf9TzaRpJ0B,NaN,NaN
long cue,single feature,R_UnfbYQPONiXwHgB,NaN,NaN
long cue,single feature,R_vcofmMoT48YgqGd,NaN,NaN
long cue,single feature,R_vdAXj8lKTQiuvLj,NaN,NaN
long cue,single feature,R_vl7yAhjMq73ut4l,NaN,NaN
long cue,single feature,R_VPabY1AJYIyCZPz,NaN,NaN
long cue,single feature,R_W8LdRMuNzFlfzfX,NaN,NaN
long cue,single feature,R_WfBh84bVieh94u5,NaN,NaN
long cue,single feature,R_xfUcAaPbjk0g6Jz,NaN,NaN
long cue,single feature,R_Y050be3d1qTgt21,NaN,NaN
long cue,single feature,R_ykzlIRPd0KX2ZW1,NaN,NaN
long cue,single feature,R_ypQ4ZCs1p2l24eJ,NaN,NaN
long cue,single feature,R_yPWGGeD3XC6CB0t,NaN,NaN
long cue,single feature,R_1240oKwSUYFSJUY,1,0.675
long cue,single feature,R_125qGAPsEKNgCik,0.875,1.16
long cue,single feature,R_1BYsxPc3DVzRRdc,0.813,1.21
long cue,single feature,R_1C4075atnBURXV9,1,0.597
long cue,single feature,R_1Ca7oDDfGUuqpD2,0.875,1.02
long cue,single feature,R_1DUQTsUdLXCAotg,0.938,0.69
long cue,single feature,R_1Ed18J86Ydnz5JK,0.75,0.887
long cue,single feature,R_1F3O1RwVVn1ANjS,0.938,0.672
long cue,single feature,R_1fd9g37kVcLlQon,0.938,0.775
long cue,single feature,R_1fjeMABd9YtFdM2,0.75,0.873
long cue,single feature,R_1FkyCxrQzCKlVM3,0.938,0.973
long cue,single feature,R_1FlZaoI26lrL1xW,0.938,0.601
long cue,single feature,R_1FQy7LAFBlt3sbw,0.875,1.14
long cue,single feature,R_1FzvTdctlBl6mau,0.875,1.2
long cue,single feature,R_1GEw2ntVr6WT5FY,0.938,0.816
long cue,single feature,R_1gGFiI9dwPgNWnF,1,0.816
long cue,single feature,R_1gTnf5neAjKhFhT,0.938,1.05
long cue,single feature,R_1H5WiYRCLXLoMr6,1,0.876
long cue,single feature,R_1hKL5I25Q84xW4U,1,2.25
long cue,single feature,R_1hXp8VCud7SMiKb,0.938,0.841
long cue,single feature,R_1IagvrDfWeu1SzI,0.938,0.818
long cue,single feature,R_1iffR2ZzRyikKgD,0.938,0.613
long cue,single feature,R_1jrMskfuP7Mrr9S,0.938,0.616
long cue,single feature,R_1K2LTDdSTkk0CkO,0.813,0.716
long cue,single feature,R_1KkDDjZQonL8jXf,0.813,1.43
long cue,single feature,R_1lo8TnSLVLCPrMI,0.75,0.988
long cue,single feature,R_1Nex25Z07JEPqPT,1,0.842
long cue,single feature,R_1oAMtAsotlpba75,1,0.566
long cue,single feature,R_1oBEFfxegvaFxqs,1,0.976
long cue,single feature,R_1OE6gsnJdCYDJNp,0.813,1.25
long cue,single feature,R_1OJJIMbAOHmEsc6,0.938,0.578
long cue,single feature,R_1onlnd0PSlmh0kP,0.938,1.5
long cue,single feature,R_1Oy5gti2oOMkrmx,1,0.999
long cue,single feature,R_1pJPjmN0ZA5yTy2,0.875,1.37
long cue,single feature,R_1ptx896QKfU4151,0.938,0.926
long cue,single feature,R_1Q0nnQSbpfMIzl8,0.813,1.72
long cue,single feature,R_1QcQ8lM8sMgbe9Z,1,0.771
long cue,single feature,R_1QhHQgn3oncjPVH,1,0.588
long cue,single feature,R_1r9CI6AFSBMawII,0.75,1.04
long cue,single feature,R_2107Kbqwjw5sjVi,1,0.719
long cue,single feature,R_21A0Opwy47DGP0D,1,0.83
long cue,single feature,R_21ixygMv7kGQldy,0.938,0.913
long cue,single feature,R_232mnWKrVorZxtV,0.938,1.46
long cue,single feature,R_23UGi46yIwlgRIg,0.938,0.634
long cue,single feature,R_23V6KyyFTKNSfr0,0.938,1.01
long cue,single feature,R_24f2Xj2zVejGVvr,1,0.66
long cue,single feature,R_24MjDzYaj8vSl2F,0.875,1.18
long cue,single feature,R_26aTxals5ya98Bn,0.875,0.761
long cue,single feature,R_27I2lMBC4C9HqXh,1,0.775
long cue,single feature,R_27IKiFTRUeouja1,0.813,1.39
long cue,single feature,R_27TjhkHUtsmEKXv,0.938,1.31
long cue,single feature,R_29buiFpEHzEyviM,1,0.435
long cue,single feature,R_2AGbTgxStxS8OK7,1,0.855
long cue,single feature,R_2ASEGOsJ8SHSVr5,1,0.959
long cue,single feature,R_2bHPDYy6X92e2YW,0.938,0.615
long cue,single feature,R_2Bu63NcF98ifXiE,0.938,0.634
long cue,single feature,R_2CTk31LB5KSXTUK,1,0.654
long cue,single feature,R_2cubeyiZDy5kcWK,0.938,0.858
long cue,single feature,R_2D5fuTu0fyLlRoG,1,0.685
long cue,single feature,R_2dH0HFAfxeETPyV,0.938,0.752
long cue,single feature,R_2diq2w8gEnf5L8z,0.938,0.621
long cue,single feature,R_2DRKnOvAi7cEOEe,1,0.596
long cue,single feature,R_2e2xTrAELL35qnU,0.938,0.951
long cue,single feature,R_2EAwGG7T8u9elvy,1,0.481
long cue,single feature,R_2EGbNncbkrLeOBn,0.813,1.34
long cue,single feature,R_2fBULLTffGRBWLb,0.75,1.12
long cue,single feature,R_2fesTAMA2X5bx5T,1,0.51
long cue,single feature,R_2fvMbaH7XgyVyCF,0.875,1.29
long cue,single feature,R_2PutYEFsewiz88m,0.75,1.24
long cue,single feature,R_2PzXxMCgeJjWWLk,0.875,0.946
long cue,single feature,R_2q9ip8BsXKWy3tB,0.875,1.14
long cue,single feature,R_2qCYwbcshBGMWl9,0.813,0.78
long cue,single feature,R_2RPRywAKJIJoXwq,0.938,0.909
long cue,single feature,R_2sSBN4IUEWRzEHE,0.875,1.3
long cue,single feature,R_2t3eKQMwJ13cTxu,0.875,0.983
long cue,single feature,R_2t5VMWadJZXwhol,0.688,1.05
long cue,single feature,R_2tKElLKJ2RzYeOL,1,1.18
long cue,single feature,R_2TOewpP52D1ZcQi,1,0.609
long cue,single feature,R_2TvIpggb40wzcMj,0.875,0.593
long cue,single feature,R_2Ugx54Yz1N7CJ36,0.938,0.703
long cue,single feature,R_2UWLzuZCkACVgCP,0.938,1.11
long cue,single feature,R_2uZFhWaBfnO4ECU,1,1.2
long cue,single feature,R_2VBBNsozbzxpfT9,0.938,0.672
long cue,single feature,R_2Vx6MwTvzph2nt3,0.875,0.91
long cue,single feature,R_2w5NkTjpk5sIZmL,1,0.577
long cue,single feature,R_2z5D2HPnn3XvNKK,0.583,0.81
long cue,single feature,R_2z5xbqVjjSIyJdo,1,1.41
long cue,single feature,R_2zAzUdW0VLW47Ua,0.875,0.641
long cue,single feature,R_2zOyxhAfuZbfaqm,0.875,1.55
long cue,single feature,R_302H874OqnSbmug,1,0.747
long cue,single feature,R_3061vbhI41l7m5V,1,0.788
long cue,single feature,R_31zRT6XRWDLt6XR,0.938,0.933
long cue,single feature,R_325E8Zcstn7PYYf,0.813,0.895
long cue,single feature,R_32X7zIltyrBl2XJ,0.875,1.03
long cue,single feature,R_33gvmuPR94pwSQR,0.813,1.27
long cue,single feature,R_33wriurPRqAICJQ,0.938,1.1
long cue,single feature,R_3CH6GYzeXMmQ3BR,0.938,0.831
long cue,single feature,R_3dYRf1LJJY5sNDQ,0.813,0.742
long cue,single feature,R_3dYYZ1eB57mzvcP,1,0.621
long cue,single feature,R_3E9zqUUokucmyvi,0.875,1.25
long cue,single feature,R_3EXNIE6ibfayydJ,1,0.488
long cue,single feature,R_3F54OWKljGjDYun,0.938,0.6
long cue,single feature,R_3fftJphDI5wp8jD,1,0.885
long cue,single feature,R_3fIafKngtt8LCdv,0.938,0.763
long cue,single feature,R_3G3aqKAxalampJB,1,0.519
long cue,single feature,R_3GfEE0tSJtpYpDK,0.938,0.936
long cue,single feature,R_3gMLdLQylpAUOCz,0.938,0.655
long cue,single feature,R_3GrJEh3BPMqoUIE,0.75,0.809
long cue,single feature,R_3gSdxynZBUsA24l,1,0.95
long cue,single feature,R_3GwicDp1Qe1fIYu,1,0.863
long cue,single feature,R_3Hov1y7dOtcDZlE,0.688,1.11
long cue,single feature,R_3Ht3R1VCyo41bf7,0.688,0.81
long cue,single feature,R_3Hzu7sZLBROTBKI,1,0.913
long cue,single feature,R_3Ic5XcXj3i1cbFL,0.813,0.614
long cue,single feature,R_3iFr8MpMy69byrN,1,1.15
long cue,single feature,R_3j0uBCOqMwUzlCW,0.938,0.968
long cue,single feature,R_3j9ApP6uO0ORpcw,1,0.705
long cue,single feature,R_3jAe4d8aowHEK53,0.875,1.24
long cue,single feature,R_3JCQVowq4SWDWhO,0.875,0.596
long cue,single feature,R_3JCuHa99Y2UioVU,0.938,1.51
long cue,single feature,R_3jSRUtmlwcSos3T,1,0.457
long cue,single feature,R_3jZIGhpufmzSmRG,0.75,1.71
long cue,single feature,R_3kANJhWZWQZHHzt,0.938,1.38
long cue,single feature,R_3kAQUBQH7gOE6L4,0.75,0.814
long cue,single feature,R_3koHaaGXSWbfZCH,1,0.764
long cue,single feature,R_3kq4Tx7qydJo7oB,0.875,1.72
long cue,single feature,R_3KxCDvIBCFGJlB2,0.875,0.783
long cue,single feature,R_3lQ7ThL8ft9I4Xd,1,0.576
long cue,single feature,R_3lQY2j5LMIXXK4u,0.875,0.758
long cue,single feature,R_3lxHPjKjHR4VSZX,0.875,0.933
long cue,single feature,R_3M5rXHlsQsfCfZ1,1,0.876
long cue,single feature,R_3NDueluChz5YLcK,0.875,1.26
long cue,single feature,R_3nGjakNTDKLeUI5,0.938,1.19
long cue,single feature,R_3nj6domOVc1jJjN,0.938,1.28
long cue,single feature,R_3NJrbvniVjhQgVe,0.813,1.28
long cue,single feature,R_3NUHxGL0DDAFsRc,0.938,1.09
long cue,single feature,R_3NV3o9ELxm8q0OB,1,0.625
long cue,single feature,R_3paGJTFEkF29ztH,0.813,0.579
long cue,single feature,R_3peQmhVVM6LZ8Rq,0.5,0.999
long cue,single feature,R_3PzqcG3ePjyMVoQ,1,0.731
long cue,single feature,R_3qU5FwC4OCJ7aqk,1,0.594
long cue,single feature,R_3Rl6FSFxxA5e8ma,1,0.878
long cue,single feature,R_3Rl6VEWOBQmKqU6,0.875,0.785
long cue,single feature,R_3RmwoIz93sstbuX,0.813,0.952
long cue,single feature,R_3svpurCda9KfwHp,0.938,0.762
long cue,single feature,R_3Vm6NBKASkpNULn,0.938,1.22
long cue,single feature,R_4MlrIKWtWMynXgJ,0.938,0.716
long cue,single feature,R_4V0pQt6VgkQw0lb,0.75,0.992
long cue,single feature,R_5zD75iREBKTihMt,1,0.84
long cue,single feature,R_6AkMGcTw5XpOoSd,0.938,1.3
long cue,single feature,R_87dG0u6RSBe8bpD,0.938,0.498
long cue,single feature,R_88lRNtWC8jzcvPr,0.938,0.898
long cue,single feature,R_9SIq53ZIw0UeCMp,0.938,0.894
long cue,single feature,R_9ZV7VYa4WgGSoPT,1,0.461
long cue,single feature,R_a8Keqoc6RqZXPj3,0.5,0.846
long cue,single feature,R_AFYcy8WqCbGhYSB,1,0.916
long cue,single feature,R_b1xBevGuDlgE5mp,0.938,0.712
long cue,single feature,R_bxcuLDEvGbOnKHT,0.5,1.21
long cue,single feature,R_ClZZ8iH4ih5ZuSd,0.875,1.74
long cue,single feature,R_dfYxqvX4G98rUXL,0.813,0.563
long cue,single feature,R_eKdyzfVrqfswb1n,0.875,1.62
long cue,single feature,R_esMmOCJbTcEsIq5,0.875,0.77
long cue,single feature,R_O0SCTkaxAB7vjA5,0.813,0.972
long cue,single feature,R_OBikbvVJp5ZcCOt,0.813,0.946
long cue,single feature,R_OjUO1JZhl881Wdr,0.938,0.586
long cue,single feature,R_OkxFT8Yi5pR6dsB,0.688,0.893
long cue,single feature,R_OPCfSDjGV5SHORr,1,0.621
long cue,single feature,R_pEoe2uY6YbOw3aF,0.938,0.44
long cue,single feature,R_PIpINaW6xp0qDD3,1,0.584
long cue,single feature,R_pK7U209871YpYIN,0.75,1.69
long cue,single feature,R_pngU1YVfrXpM6m5,1,0.605
long cue,single feature,R_PSSk558zgwsdfq1,0.938,0.949
long cue,single feature,R_pT8XhCOwudJrdq9,1,0.774
long cue,single feature,R_Pwhzf2X9FTJWwcp,0.875,0.65
long cue,single feature,R_qL4FaXWkk1AqEmt,0.688,1.36
long cue,single feature,R_QoG98GIXlyTTQCB,0.875,0.71
long cue,single feature,R_R838SwdXuvvg13j,1,0.836
long cue,single feature,R_rcHQpWAv7AbsluV,1,0.801
long cue,single feature,R_rkiqrtdH01X2Uz7,1,0.843
long cue,single feature,R_rpa23bPTMqxRuy5,0.875,1.31
long cue,single feature,R_RPRRh5b9RJjsLWF,0.938,2.42
long cue,single feature,R_RxCmnVP4h0M2Iet,0.938,0.996
long cue,single feature,R_SUAv0Djpf96vXsB,0.875,1.07
long cue,single feature,R_szedVFAI7mc8uqt,1,0.596
long cue,single feature,R_TjDuFk15r39Xrqh,0.938,0.645
long cue,single feature,R_u220n4MBxTrGIqB,1,0.786
long cue,single feature,R_uk7jLfoyyvrie5P,0.875,0.742
long cue,single feature,R_uk8lyne8BTwZWx3,1,0.554
long cue,single feature,R_vcRLjOIJganFB5L,0.813,0.657
long cue,single feature,R_vf2rDe2loSzFI4h,0.938,1.84
long cue,single feature,R_vMGeXCE2A7fFihP,0.938,1.21
long cue,single feature,R_VO1OFG6TLIlFTbj,1,0.961
long cue,single feature,R_voSsFXEsEVlpeMx,1,1.28
long cue,single feature,R_xaQjSryVetgbxMR,0.938,1.3
long cue,single feature,R_xiuZL8oQedG2nrb,0.938,0.572
long cue,single feature,R_Y3NmOCLnLbfmdRT,0.938,0.68
long cue,single feature,R_ykWwfg34VBujl0B,1,0.822
long cue,single feature,R_yPWVvpu60ycQ8P7,0.875,0.845
long cue,single feature,R_z0je8cRGh1eQ8Rb,0.938,0.63
long cue,single feature,R_Z9PxP0CExYG8397,0.75,0.567
long cue,single feature,R_ZahaFNCfOgy05xL,0.938,1.11
long cue,single feature,R_ZaxZDyOScZVjzz3,0.688,1.02
long cue,single feature,R_zZ3GrNWCcyKf98B,1,0.86
short cue,dual feature,R_08x3yfNtCFtgBYl,0.938,1.87
short cue,dual feature,R_0OmSAzFURsT3hND,0.938,0.732
short cue,dual feature,R_10ZPMCCzcV8FG6A,1,0.99
short cue,dual feature,R_12s68Ligswec1t3,0.938,0.532
short cue,dual feature,R_1BPAkPhD282eIwa,1,0.842
short cue,dual feature,R_1CDQa7qsN9RNzFH,1,1.13
short cue,dual feature,R_1CJcSTbRoTUCqgI,1,1.05
short cue,dual feature,R_1cUmxE0nB0eQ5tx,1,1.02
short cue,dual feature,R_1cUnP5PoHL3kGw8,1,1.13
short cue,dual feature,R_1cZYqPuI2ovCe8d,0.875,0.617
short cue,dual feature,R_1DuNzuDT2Ly6aYo,1,1.03
short cue,dual feature,R_1Ej3yOyXSRu4rHj,0.938,0.467
short cue,dual feature,R_1eK9C4dUWMG5UoE,1,0.556
short cue,dual feature,R_1erta2V92H4drrE,0.938,1.21
short cue,dual feature,R_1ex76BKICzdLpi3,1,0.864
short cue,dual feature,R_1flJVVkbxzk1i5c,1,0.526
short cue,dual feature,R_1g6KjG4gA3vEJF7,0.938,1.08
short cue,dual feature,R_1gHKNsWNE1ugMUa,1,1.13
short cue,dual feature,R_1HkLtKPGeWEXFwg,1,0.828
short cue,dual feature,R_1HpZbLVjg7CUvTk,0.938,0.938
short cue,dual feature,R_1hzkst2wvP8JIH4,1,0.75
short cue,dual feature,R_1IfTVw1P9JXGPqL,1,0.878
short cue,dual feature,R_1imoeufCHjjazMW,1,0.717
short cue,dual feature,R_1IR8kofj9wFWdIF,1,1.31
short cue,dual feature,R_1ISOn43feC1HgrC,0.875,1.16
short cue,dual feature,R_1IXVr7a4rbLclDy,1,1.29
short cue,dual feature,R_1jCgwQdSLoXJHUV,1,1.42
short cue,dual feature,R_1jDKVL7IiGl9Yg2,1,1.36
short cue,dual feature,R_1jE8xih7Lg9IirX,1,0.476
short cue,dual feature,R_1jH3pdKIvdSHNIY,0.938,0.668
short cue,dual feature,R_1jrzi2l761541zF,1,0.657
short cue,dual feature,R_1K3eLYRF0WM0F1x,1,1.22
short cue,dual feature,R_1K6KGucq5uhaFzv,1,1.66
short cue,dual feature,R_1K71a7Ou0dd9RDl,0.938,0.945
short cue,dual feature,R_1KqDdYqdsxJyWIf,1,0.693
short cue,dual feature,R_1LXmTvk5iLuGEaA,1,0.672
short cue,dual feature,R_1lzzukvJq3atYiQ,1,0.653
short cue,dual feature,R_1mC4cBupoC4tHV4,1,0.732
short cue,dual feature,R_1mIULYprIrOv92G,1,0.578
short cue,dual feature,R_1mmFOe3uknXraci,1,1.14
short cue,dual feature,R_1nOO1BGaTXG8VNZ,0.938,1.17
short cue,dual feature,R_1nOQ0qbgqQcSRz6,1,0.849
short cue,dual feature,R_1OkOyQCupky29ws,0.938,0.774
short cue,dual feature,R_1OVnUIQoDvuoLoa,1,1.03
short cue,dual feature,R_1PemspRhIIq93Jq,1,1.58
short cue,dual feature,R_1pMrEEZMbPml0WU,0.938,0.667
short cue,dual feature,R_1pukYYnbpsfMrZv,1,0.717
short cue,dual feature,R_1PXVhaM73VwX7i7,1,0.443
short cue,dual feature,R_1QDSGYxg9iGBQ1N,0.938,1.15
short cue,dual feature,R_1qXpoOypYbjTRWl,1,1.63
short cue,dual feature,R_1rla5wg2eJeofgU,0.938,0.719
short cue,dual feature,R_1rvojTzRtsDhwWZ,1,0.448
short cue,dual feature,R_1XqCDwzg1i2Esxj,1,1.02
short cue,dual feature,R_20Mv4w5vYeNCTls,0.938,0.782
short cue,dual feature,R_23TwjQv7jVMZAHh,0.938,1.5
short cue,dual feature,R_24HieJfWwUqqVSw,0.938,1.29
short cue,dual feature,R_24jTtLg98nGv99c,1,0.665
short cue,dual feature,R_25BzCJwLFrqdpOi,0.667,1.57
short cue,dual feature,R_27EkFokF3zDCAFg,1,0.667
short cue,dual feature,R_27HkygMlXuzFDss,1,1.23
short cue,dual feature,R_28B8ByTcmPbYYBi,1,0.902
short cue,dual feature,R_290a4seCfd02VPe,1,0.805
short cue,dual feature,R_29buJYsXisup2Mb,0.938,1.56
short cue,dual feature,R_2aDYCLDeHnDcoTK,1,0.66
short cue,dual feature,R_2AZHWSSUZ7gAeVu,1,1.69
short cue,dual feature,R_2BnRYuqRU9MgxDH,0.938,0.886
short cue,dual feature,R_2BtIrCsNLg3M5Hv,0.938,1.02
short cue,dual feature,R_2c6m9mRMP3vRtxF,1,0.819
short cue,dual feature,R_2cc7FPRMpuGx2CV,0.938,0.488
short cue,dual feature,R_2CDt4ymTrZ6kFn0,0.938,1.91
short cue,dual feature,R_2cnGgIRvbYUU2JM,1,0.949
short cue,dual feature,R_2cvhE0HTQ1JO49j,1,1.44
short cue,dual feature,R_2dYKuSke1t2VOfa,1,0.646
short cue,dual feature,R_2f6VCNeHmcSqTrE,1,0.666
short cue,dual feature,R_2fD1bJjW95gw3LB,1,1.15
short cue,dual feature,R_2P1NXSwrNBPPbSy,1,1.32
short cue,dual feature,R_2P5OftLBu8Xnm63,1,0.686
short cue,dual feature,R_2pJiC30bA23mBP9,1,0.838
short cue,dual feature,R_2QggTeu9uNjR2Kz,0.938,1.47
short cue,dual feature,R_2Qn8nKQlmurWj6x,0.75,1.33
short cue,dual feature,R_2qxGC4cTbe7xhyS,0.938,0.576
short cue,dual feature,R_2R81qJfBkmFANkJ,0.875,0.975
short cue,dual feature,R_2rVd3Udq0Naa4tm,1,0.99
short cue,dual feature,R_2s5BrOZwyfMmXNT,0.938,0.808
short cue,dual feature,R_2saKX0rCpQMSpWC,1,0.812
short cue,dual feature,R_2sZwXaQWcDrXX4J,1,0.592
short cue,dual feature,R_2t2RITW5Msrt0v1,1,0.71
short cue,dual feature,R_2t8PKxoTop4myWX,1,0.943
short cue,dual feature,R_2TvjCe31vsmiZgF,1,0.73
short cue,dual feature,R_2tzNr5GcFWibgNj,0.875,1.05
short cue,dual feature,R_2uaROXK2JM6R5KN,1,0.583
short cue,dual feature,R_2uEyL6gg252E1VJ,1,0.895
short cue,dual feature,R_2uPd3IAgL1aElYJ,1,0.678
short cue,dual feature,R_2UYj6qVJqb6JhXS,1,0.841
short cue,dual feature,R_2v1EkCyV15Ok7D5,1,0.556
short cue,dual feature,R_2v6M4LykwnHQpey,1,0.675
short cue,dual feature,R_2wgkGKCmXhgbs6f,0.813,0.687
short cue,dual feature,R_2whKJfx0Nt043dd,1,0.477
short cue,dual feature,R_2xIZjV9sIl4RF6P,0.938,1.11
short cue,dual feature,R_2xxfsrIN77B2IyP,0.938,1.51
short cue,dual feature,R_2Y5SgzE2hzm4IzP,1,1.37
short cue,dual feature,R_2zMG3pjpYVG6q9D,0.938,1.44
short cue,dual feature,R_2zZOxm6mvhN3djv,1,0.486
short cue,dual feature,R_31HQAyCP0raT1FV,1,0.483
short cue,dual feature,R_32Ph5gf2egyE3BQ,0.938,0.85
short cue,dual feature,R_32SfLOnCsAkGpkr,1,0.714
short cue,dual feature,R_389Zio7QxIjX2Gl,1,1.6
short cue,dual feature,R_3CE2psUILAye8Gw,1,1.72
short cue,dual feature,R_3CQ5KT4CZBYWAlC,1,0.613
short cue,dual feature,R_3dG1KAXAFwYYSNa,0.938,1.2
short cue,dual feature,R_3dYB6FtZaYKmnQI,0.938,0.796
short cue,dual feature,R_3ekQwKF3mgu5b6t,0.938,0.677
short cue,dual feature,R_3emJvrH8C0R8XAf,1,1.11
short cue,dual feature,R_3EnIpSKfpoFxj4q,0.875,1.13
short cue,dual feature,R_3F4Nuu63mcg282m,0.875,1.31
short cue,dual feature,R_3fekyhJ51vsHhVz,1,0.655
short cue,dual feature,R_3huTrvGn33dOCmD,0.813,1.29
short cue,dual feature,R_3hxsgJPCQz6ODRf,0.938,1.28
short cue,dual feature,R_3I6Ku341O3voRKF,1,1.44
short cue,dual feature,R_3IawjgtbqJ8vZS1,1,0.696
short cue,dual feature,R_3IbLExNViiL7Wmj,0.667,1.96
short cue,dual feature,R_3isy7djZDjX51Zy,1,1.57
short cue,dual feature,R_3iUBe2A2sqTNxe6,0.938,0.701
short cue,dual feature,R_3J5dZzQpHZlbptE,0.938,1.07
short cue,dual feature,R_3J7WamqLp1arSYg,1,0.834
short cue,dual feature,R_3J8imcd2CT8E7nV,1,0.732
short cue,dual feature,R_3JepjzwRIn4QNMa,0.875,1.18
short cue,dual feature,R_3JKuKZTaXlZlS9L,0.875,1.03
short cue,dual feature,R_3L0GKcwhfD3ONGp,1,0.645
short cue,dual feature,R_3L8bKSLPWWYQbb1,1,0.955
short cue,dual feature,R_3lA2P9y5IuW1K16,0.875,0.595
short cue,dual feature,R_3lQSewC3zD0cqPm,1,0.517
short cue,dual feature,R_3lW8WmUtn8ktnqb,1,1.83
short cue,dual feature,R_3LYmXrQqAEkquZp,1,0.657
short cue,dual feature,R_3m29EB99jBC3eYM,0.938,0.714
short cue,dual feature,R_3mfrYYubAvKcVXD,1,0.684
short cue,dual feature,R_3MrsBALpPMDdc4K,0.938,1.82
short cue,dual feature,R_3MsZ1FtrecdI6Bk,1,1.02
short cue,dual feature,R_3ni4oB2dXSyqVt5,0.938,0.716
short cue,dual feature,R_3NLrAGnHeCcusnN,0.938,0.92
short cue,dual feature,R_3nTN2on5k76PSqy,0.938,0.734
short cue,dual feature,R_3nuRnyn8F7V1zzY,0.938,1.27
short cue,dual feature,R_3nvCR77A2gIXUnU,1,0.817
short cue,dual feature,R_3OijgTkqK3N1vDR,1,0.83
short cue,dual feature,R_3PH8KwGY7M572k7,0.813,1.23
short cue,dual feature,R_3PhNSDcozSxV4x6,1,0.553
short cue,dual feature,R_3PHnuh1NwQxBUke,1,0.776
short cue,dual feature,R_3plRloA3DMCWRlm,0.875,0.744
short cue,dual feature,R_3PoF0xbH4zPk6H9,1,0.845
short cue,dual feature,R_3PUkBY8ioPt2QHk,1,0.836
short cue,dual feature,R_3qE9UFs34ohzB4u,0.938,0.879
short cue,dual feature,R_3qIGvV1gBPeGAF3,1,0.7
short cue,dual feature,R_3qqgOHNsjhwxEbU,1,0.831
short cue,dual feature,R_3r1hJN0OmOW9eWt,0.938,1.13
short cue,dual feature,R_3r2uzs1xxGdN7Xt,0.938,1.6
short cue,dual feature,R_3R2V7o3AKvD3riN,0.938,1.13
short cue,dual feature,R_3sgjFLFAcfatVu1,1,0.881
short cue,dual feature,R_3snnTFxEmMWchE3,1,1.22
short cue,dual feature,R_4HGqzV1TmoKnmRb,1,0.936
short cue,dual feature,R_4UcujUnUkeMAjcd,1,1.28
short cue,dual feature,R_5AccJZEMv9dA7ZL,0.938,1.48
short cue,dual feature,R_5Bl0sD2ma6kOenD,0.938,2.04
short cue,dual feature,R_6QoG7SGfNSA5MY1,0.875,1.54
short cue,dual feature,R_78aLaJZ9ov7E4z7,0.938,1.27
short cue,dual feature,R_7QYLh7Cv4ho9ne9,1,0.872
short cue,dual feature,R_8039DfpRFz4mdlD,0.938,0.893
short cue,dual feature,R_81zsKze4hKiO3Ch,1,0.662
short cue,dual feature,R_821ywZ3Ur7opgmR,1,1.38
short cue,dual feature,R_8qYu2CCKRBiPBjb,1,1.01
short cue,dual feature,R_AhqftoXBoaz9xId,1,0.979
short cue,dual feature,R_aXyHoAyLu9CDc4N,0.875,0.84
short cue,dual feature,R_BEpHnJisiwxS1z3,0.938,1.7
short cue,dual feature,R_bj5pW4Iu3tLbUnT,1,2.36
short cue,dual feature,R_bJ8LN8hW9Wr5SFj,1,0.573
short cue,dual feature,R_BV2jiQRnLfyGBYl,1,0.77
short cue,dual feature,R_Cjijzqk1J6xkLdf,1,0.783
short cue,dual feature,R_d6C5372Rri91D57,1,1.17
short cue,dual feature,R_DcbIYJJOl9NfnSV,1,0.454
short cue,dual feature,R_dh9Z16ZeR9OmSJj,1,0.626
short cue,dual feature,R_dm7E2sdo1YUjT3z,1,0.467
short cue,dual feature,R_dmY5Tc0WANqnPs5,0.813,1.18
short cue,dual feature,R_eai96tm4PUo2JmF,0.938,0.843
short cue,dual feature,R_eJrfTYcTp9qL7ix,1,0.72
short cue,dual feature,R_eyNfgTiSRXT8Xi9,0.938,1.23
short cue,dual feature,R_O0WT1fmWD73IgCZ,1,0.942
short cue,dual feature,R_Ope2sXA3sL6z35T,1,0.805
short cue,dual feature,R_PA36VyjszG9W9gt,0.875,1.32
short cue,dual feature,R_pufazghR2YH4Vqx,0.875,1.11
short cue,dual feature,R_PYUFtJ6v69P19WF,1,0.795
short cue,dual feature,R_Q3QAyLhzVGkm1hL,0.938,1.14
short cue,dual feature,R_r25ZrJt80L0xZ5v,1,0.971
short cue,dual feature,R_sZRf0Q5e9LGW9gJ,1,2.29
short cue,dual feature,R_tLqTSkDsUZvWP4t,1,0.761
short cue,dual feature,R_tQjTkAdN6h1rHHP,1,0.752
short cue,dual feature,R_UA47gf9TzaRpJ0B,0.938,1.29
short cue,dual feature,R_UnfbYQPONiXwHgB,0.938,1.29
short cue,dual feature,R_vcofmMoT48YgqGd,1,1.06
short cue,dual feature,R_vdAXj8lKTQiuvLj,0.938,1.72
short cue,dual feature,R_vl7yAhjMq73ut4l,0.938,0.927
short cue,dual feature,R_VPabY1AJYIyCZPz,0.938,1.19
short cue,dual feature,R_W8LdRMuNzFlfzfX,1,0.588
short cue,dual feature,R_WfBh84bVieh94u5,0.938,0.983
short cue,dual feature,R_xfUcAaPbjk0g6Jz,1,0.7
short cue,dual feature,R_Y050be3d1qTgt21,0.938,0.743
short cue,dual feature,R_ykzlIRPd0KX2ZW1,1,1.04
short cue,dual feature,R_ypQ4ZCs1p2l24eJ,1,0.762
short cue,dual feature,R_yPWGGeD3XC6CB0t,0.938,0.743
short cue,dual feature,R_1240oKwSUYFSJUY,NaN,NaN
short cue,dual feature,R_125qGAPsEKNgCik,NaN,NaN
short cue,dual feature,R_1BYsxPc3DVzRRdc,NaN,NaN
short cue,dual feature,R_1C4075atnBURXV9,NaN,NaN
short cue,dual feature,R_1Ca7oDDfGUuqpD2,NaN,NaN
short cue,dual feature,R_1DUQTsUdLXCAotg,NaN,NaN
short cue,dual feature,R_1Ed18J86Ydnz5JK,NaN,NaN
short cue,dual feature,R_1F3O1RwVVn1ANjS,NaN,NaN
short cue,dual feature,R_1fd9g37kVcLlQon,NaN,NaN
short cue,dual feature,R_1fjeMABd9YtFdM2,NaN,NaN
short cue,dual feature,R_1FkyCxrQzCKlVM3,NaN,NaN
short cue,dual feature,R_1FlZaoI26lrL1xW,NaN,NaN
short cue,dual feature,R_1FQy7LAFBlt3sbw,NaN,NaN
short cue,dual feature,R_1FzvTdctlBl6mau,NaN,NaN
short cue,dual feature,R_1GEw2ntVr6WT5FY,NaN,NaN
short cue,dual feature,R_1gGFiI9dwPgNWnF,NaN,NaN
short cue,dual feature,R_1gTnf5neAjKhFhT,NaN,NaN
short cue,dual feature,R_1H5WiYRCLXLoMr6,NaN,NaN
short cue,dual feature,R_1hKL5I25Q84xW4U,NaN,NaN
short cue,dual feature,R_1hXp8VCud7SMiKb,NaN,NaN
short cue,dual feature,R_1IagvrDfWeu1SzI,NaN,NaN
short cue,dual feature,R_1iffR2ZzRyikKgD,NaN,NaN
short cue,dual feature,R_1jrMskfuP7Mrr9S,NaN,NaN
short cue,dual feature,R_1K2LTDdSTkk0CkO,NaN,NaN
short cue,dual feature,R_1KkDDjZQonL8jXf,NaN,NaN
short cue,dual feature,R_1lo8TnSLVLCPrMI,NaN,NaN
short cue,dual feature,R_1Nex25Z07JEPqPT,NaN,NaN
short cue,dual feature,R_1oAMtAsotlpba75,NaN,NaN
short cue,dual feature,R_1oBEFfxegvaFxqs,NaN,NaN
short cue,dual feature,R_1OE6gsnJdCYDJNp,NaN,NaN
short cue,dual feature,R_1OJJIMbAOHmEsc6,NaN,NaN
short cue,dual feature,R_1onlnd0PSlmh0kP,NaN,NaN
short cue,dual feature,R_1Oy5gti2oOMkrmx,NaN,NaN
short cue,dual feature,R_1pJPjmN0ZA5yTy2,NaN,NaN
short cue,dual feature,R_1ptx896QKfU4151,NaN,NaN
short cue,dual feature,R_1Q0nnQSbpfMIzl8,NaN,NaN
short cue,dual feature,R_1QcQ8lM8sMgbe9Z,NaN,NaN
short cue,dual feature,R_1QhHQgn3oncjPVH,NaN,NaN
short cue,dual feature,R_1r9CI6AFSBMawII,NaN,NaN
short cue,dual feature,R_2107Kbqwjw5sjVi,NaN,NaN
short cue,dual feature,R_21A0Opwy47DGP0D,NaN,NaN
short cue,dual feature,R_21ixygMv7kGQldy,NaN,NaN
short cue,dual feature,R_232mnWKrVorZxtV,NaN,NaN
short cue,dual feature,R_23UGi46yIwlgRIg,NaN,NaN
short cue,dual feature,R_23V6KyyFTKNSfr0,NaN,NaN
short cue,dual feature,R_24f2Xj2zVejGVvr,NaN,NaN
short cue,dual feature,R_24MjDzYaj8vSl2F,NaN,NaN
short cue,dual feature,R_26aTxals5ya98Bn,NaN,NaN
short cue,dual feature,R_27I2lMBC4C9HqXh,NaN,NaN
short cue,dual feature,R_27IKiFTRUeouja1,NaN,NaN
short cue,dual feature,R_27TjhkHUtsmEKXv,NaN,NaN
short cue,dual feature,R_29buiFpEHzEyviM,NaN,NaN
short cue,dual feature,R_2AGbTgxStxS8OK7,NaN,NaN
short cue,dual feature,R_2ASEGOsJ8SHSVr5,NaN,NaN
short cue,dual feature,R_2bHPDYy6X92e2YW,NaN,NaN
short cue,dual feature,R_2Bu63NcF98ifXiE,NaN,NaN
short cue,dual feature,R_2CTk31LB5KSXTUK,NaN,NaN
short cue,dual feature,R_2cubeyiZDy5kcWK,NaN,NaN
short cue,dual feature,R_2D5fuTu0fyLlRoG,NaN,NaN
short cue,dual feature,R_2dH0HFAfxeETPyV,NaN,NaN
short cue,dual feature,R_2diq2w8gEnf5L8z,NaN,NaN
short cue,dual feature,R_2DRKnOvAi7cEOEe,NaN,NaN
short cue,dual feature,R_2e2xTrAELL35qnU,NaN,NaN
short cue,dual feature,R_2EAwGG7T8u9elvy,NaN,NaN
short cue,dual feature,R_2EGbNncbkrLeOBn,NaN,NaN
short cue,dual feature,R_2fBULLTffGRBWLb,NaN,NaN
short cue,dual feature,R_2fesTAMA2X5bx5T,NaN,NaN
short cue,dual feature,R_2fvMbaH7XgyVyCF,NaN,NaN
short cue,dual feature,R_2PutYEFsewiz88m,NaN,NaN
short cue,dual feature,R_2PzXxMCgeJjWWLk,NaN,NaN
short cue,dual feature,R_2q9ip8BsXKWy3tB,NaN,NaN
short cue,dual feature,R_2qCYwbcshBGMWl9,NaN,NaN
short cue,dual feature,R_2RPRywAKJIJoXwq,NaN,NaN
short cue,dual feature,R_2sSBN4IUEWRzEHE,NaN,NaN
short cue,dual feature,R_2t3eKQMwJ13cTxu,NaN,NaN
short cue,dual feature,R_2t5VMWadJZXwhol,NaN,NaN
short cue,dual feature,R_2tKElLKJ2RzYeOL,NaN,NaN
short cue,dual feature,R_2TOewpP52D1ZcQi,NaN,NaN
short cue,dual feature,R_2TvIpggb40wzcMj,NaN,NaN
short cue,dual feature,R_2Ugx54Yz1N7CJ36,NaN,NaN
short cue,dual feature,R_2UWLzuZCkACVgCP,NaN,NaN
short cue,dual feature,R_2uZFhWaBfnO4ECU,NaN,NaN
short cue,dual feature,R_2VBBNsozbzxpfT9,NaN,NaN
short cue,dual feature,R_2Vx6MwTvzph2nt3,NaN,NaN
short cue,dual feature,R_2w5NkTjpk5sIZmL,NaN,NaN
short cue,dual feature,R_2z5D2HPnn3XvNKK,NaN,NaN
short cue,dual feature,R_2z5xbqVjjSIyJdo,NaN,NaN
short cue,dual feature,R_2zAzUdW0VLW47Ua,NaN,NaN
short cue,dual feature,R_2zOyxhAfuZbfaqm,NaN,NaN
short cue,dual feature,R_302H874OqnSbmug,NaN,NaN
short cue,dual feature,R_3061vbhI41l7m5V,NaN,NaN
short cue,dual feature,R_31zRT6XRWDLt6XR,NaN,NaN
short cue,dual feature,R_325E8Zcstn7PYYf,NaN,NaN
short cue,dual feature,R_32X7zIltyrBl2XJ,NaN,NaN
short cue,dual feature,R_33gvmuPR94pwSQR,NaN,NaN
short cue,dual feature,R_33wriurPRqAICJQ,NaN,NaN
short cue,dual feature,R_3CH6GYzeXMmQ3BR,NaN,NaN
short cue,dual feature,R_3dYRf1LJJY5sNDQ,NaN,NaN
short cue,dual feature,R_3dYYZ1eB57mzvcP,NaN,NaN
short cue,dual feature,R_3E9zqUUokucmyvi,NaN,NaN
short cue,dual feature,R_3EXNIE6ibfayydJ,NaN,NaN
short cue,dual feature,R_3F54OWKljGjDYun,NaN,NaN
short cue,dual feature,R_3fftJphDI5wp8jD,NaN,NaN
short cue,dual feature,R_3fIafKngtt8LCdv,NaN,NaN
short cue,dual feature,R_3G3aqKAxalampJB,NaN,NaN
short cue,dual feature,R_3GfEE0tSJtpYpDK,NaN,NaN
short cue,dual feature,R_3gMLdLQylpAUOCz,NaN,NaN
short cue,dual feature,R_3GrJEh3BPMqoUIE,NaN,NaN
short cue,dual feature,R_3gSdxynZBUsA24l,NaN,NaN
short cue,dual feature,R_3GwicDp1Qe1fIYu,NaN,NaN
short cue,dual feature,R_3Hov1y7dOtcDZlE,NaN,NaN
short cue,dual feature,R_3Ht3R1VCyo41bf7,NaN,NaN
short cue,dual feature,R_3Hzu7sZLBROTBKI,NaN,NaN
short cue,dual feature,R_3Ic5XcXj3i1cbFL,NaN,NaN
short cue,dual feature,R_3iFr8MpMy69byrN,NaN,NaN
short cue,dual feature,R_3j0uBCOqMwUzlCW,NaN,NaN
short cue,dual feature,R_3j9ApP6uO0ORpcw,NaN,NaN
short cue,dual feature,R_3jAe4d8aowHEK53,NaN,NaN
short cue,dual feature,R_3JCQVowq4SWDWhO,NaN,NaN
short cue,dual feature,R_3JCuHa99Y2UioVU,NaN,NaN
short cue,dual feature,R_3jSRUtmlwcSos3T,NaN,NaN
short cue,dual feature,R_3jZIGhpufmzSmRG,NaN,NaN
short cue,dual feature,R_3kANJhWZWQZHHzt,NaN,NaN
short cue,dual feature,R_3kAQUBQH7gOE6L4,NaN,NaN
short cue,dual feature,R_3koHaaGXSWbfZCH,NaN,NaN
short cue,dual feature,R_3kq4Tx7qydJo7oB,NaN,NaN
short cue,dual feature,R_3KxCDvIBCFGJlB2,NaN,NaN
short cue,dual feature,R_3lQ7ThL8ft9I4Xd,NaN,NaN
short cue,dual feature,R_3lQY2j5LMIXXK4u,NaN,NaN
short cue,dual feature,R_3lxHPjKjHR4VSZX,NaN,NaN
short cue,dual feature,R_3M5rXHlsQsfCfZ1,NaN,NaN
short cue,dual feature,R_3NDueluChz5YLcK,NaN,NaN
short cue,dual feature,R_3nGjakNTDKLeUI5,NaN,NaN
short cue,dual feature,R_3nj6domOVc1jJjN,NaN,NaN
short cue,dual feature,R_3NJrbvniVjhQgVe,NaN,NaN
short cue,dual feature,R_3NUHxGL0DDAFsRc,NaN,NaN
short cue,dual feature,R_3NV3o9ELxm8q0OB,NaN,NaN
short cue,dual feature,R_3paGJTFEkF29ztH,NaN,NaN
short cue,dual feature,R_3peQmhVVM6LZ8Rq,NaN,NaN
short cue,dual feature,R_3PzqcG3ePjyMVoQ,NaN,NaN
short cue,dual feature,R_3qU5FwC4OCJ7aqk,NaN,NaN
short cue,dual feature,R_3Rl6FSFxxA5e8ma,NaN,NaN
short cue,dual feature,R_3Rl6VEWOBQmKqU6,NaN,NaN
short cue,dual feature,R_3RmwoIz93sstbuX,NaN,NaN
short cue,dual feature,R_3svpurCda9KfwHp,NaN,NaN
short cue,dual feature,R_3Vm6NBKASkpNULn,NaN,NaN
short cue,dual feature,R_4MlrIKWtWMynXgJ,NaN,NaN
short cue,dual feature,R_4V0pQt6VgkQw0lb,NaN,NaN
short cue,dual feature,R_5zD75iREBKTihMt,NaN,NaN
short cue,dual feature,R_6AkMGcTw5XpOoSd,NaN,NaN
short cue,dual feature,R_87dG0u6RSBe8bpD,NaN,NaN
short cue,dual feature,R_88lRNtWC8jzcvPr,NaN,NaN
short cue,dual feature,R_9SIq53ZIw0UeCMp,NaN,NaN
short cue,dual feature,R_9ZV7VYa4WgGSoPT,NaN,NaN
short cue,dual feature,R_a8Keqoc6RqZXPj3,NaN,NaN
short cue,dual feature,R_AFYcy8WqCbGhYSB,NaN,NaN
short cue,dual feature,R_b1xBevGuDlgE5mp,NaN,NaN
short cue,dual feature,R_bxcuLDEvGbOnKHT,NaN,NaN
short cue,dual feature,R_ClZZ8iH4ih5ZuSd,NaN,NaN
short cue,dual feature,R_dfYxqvX4G98rUXL,NaN,NaN
short cue,dual feature,R_eKdyzfVrqfswb1n,NaN,NaN
short cue,dual feature,R_esMmOCJbTcEsIq5,NaN,NaN
short cue,dual feature,R_O0SCTkaxAB7vjA5,NaN,NaN
short cue,dual feature,R_OBikbvVJp5ZcCOt,NaN,NaN
short cue,dual feature,R_OjUO1JZhl881Wdr,NaN,NaN
short cue,dual feature,R_OkxFT8Yi5pR6dsB,NaN,NaN
short cue,dual feature,R_OPCfSDjGV5SHORr,NaN,NaN
short cue,dual feature,R_pEoe2uY6YbOw3aF,NaN,NaN
short cue,dual feature,R_PIpINaW6xp0qDD3,NaN,NaN
short cue,dual feature,R_pK7U209871YpYIN,NaN,NaN
short cue,dual feature,R_pngU1YVfrXpM6m5,NaN,NaN
short cue,dual feature,R_PSSk558zgwsdfq1,NaN,NaN
short cue,dual feature,R_pT8XhCOwudJrdq9,NaN,NaN
short cue,dual feature,R_Pwhzf2X9FTJWwcp,NaN,NaN
short cue,dual feature,R_qL4FaXWkk1AqEmt,NaN,NaN
short cue,dual feature,R_QoG98GIXlyTTQCB,NaN,NaN
short cue,dual feature,R_R838SwdXuvvg13j,NaN,NaN
short cue,dual feature,R_rcHQpWAv7AbsluV,NaN,NaN
short cue,dual feature,R_rkiqrtdH01X2Uz7,NaN,NaN
short cue,dual feature,R_rpa23bPTMqxRuy5,NaN,NaN
short cue,dual feature,R_RPRRh5b9RJjsLWF,NaN,NaN
short cue,dual feature,R_RxCmnVP4h0M2Iet,NaN,NaN
short cue,dual feature,R_SUAv0Djpf96vXsB,NaN,NaN
short cue,dual feature,R_szedVFAI7mc8uqt,NaN,NaN
short cue,dual feature,R_TjDuFk15r39Xrqh,NaN,NaN
short cue,dual feature,R_u220n4MBxTrGIqB,NaN,NaN
short cue,dual feature,R_uk7jLfoyyvrie5P,NaN,NaN
short cue,dual feature,R_uk8lyne8BTwZWx3,NaN,NaN
short cue,dual feature,R_vcRLjOIJganFB5L,NaN,NaN
short cue,dual feature,R_vf2rDe2loSzFI4h,NaN,NaN
short cue,dual feature,R_vMGeXCE2A7fFihP,NaN,NaN
short cue,dual feature,R_VO1OFG6TLIlFTbj,NaN,NaN
short cue,dual feature,R_voSsFXEsEVlpeMx,NaN,NaN
short cue,dual feature,R_xaQjSryVetgbxMR,NaN,NaN
short cue,dual feature,R_xiuZL8oQedG2nrb,NaN,NaN
short cue,dual feature,R_Y3NmOCLnLbfmdRT,NaN,NaN
short cue,dual feature,R_ykWwfg34VBujl0B,NaN,NaN
short cue,dual feature,R_yPWVvpu60ycQ8P7,NaN,NaN
short cue,dual feature,R_z0je8cRGh1eQ8Rb,NaN,NaN
short cue,dual feature,R_Z9PxP0CExYG8397,NaN,NaN
short cue,dual feature,R_ZahaFNCfOgy05xL,NaN,NaN
short cue,dual feature,R_ZaxZDyOScZVjzz3,NaN,NaN
short cue,dual feature,R_zZ3GrNWCcyKf98B,NaN,NaN
short cue,single feature,R_08x3yfNtCFtgBYl,1,1.87
short cue,single feature,R_0OmSAzFURsT3hND,1,1.17
short cue,single feature,R_10ZPMCCzcV8FG6A,1,0.974
short cue,single feature,R_12s68Ligswec1t3,1,0.589
short cue,single feature,R_1BPAkPhD282eIwa,1,0.934
short cue,single feature,R_1CDQa7qsN9RNzFH,1,1.3
short cue,single feature,R_1CJcSTbRoTUCqgI,0.875,1.15
short cue,single feature,R_1cUmxE0nB0eQ5tx,1,1.06
short cue,single feature,R_1cUnP5PoHL3kGw8,0.875,1.18
short cue,single feature,R_1cZYqPuI2ovCe8d,1,1.4
short cue,single feature,R_1DuNzuDT2Ly6aYo,1,1.02
short cue,single feature,R_1Ej3yOyXSRu4rHj,1,0.608
short cue,single feature,R_1eK9C4dUWMG5UoE,1,0.626
short cue,single feature,R_1erta2V92H4drrE,0.625,1.67
short cue,single feature,R_1ex76BKICzdLpi3,1,1.13
short cue,single feature,R_1flJVVkbxzk1i5c,1,0.755
short cue,single feature,R_1g6KjG4gA3vEJF7,1,0.921
short cue,single feature,R_1gHKNsWNE1ugMUa,0.875,1.39
short cue,single feature,R_1HkLtKPGeWEXFwg,1,1.09
short cue,single feature,R_1HpZbLVjg7CUvTk,0.813,1.02
short cue,single feature,R_1hzkst2wvP8JIH4,0.875,0.632
short cue,single feature,R_1IfTVw1P9JXGPqL,1,0.814
short cue,single feature,R_1imoeufCHjjazMW,1,0.777
short cue,single feature,R_1IR8kofj9wFWdIF,0.938,1.41
short cue,single feature,R_1ISOn43feC1HgrC,0.938,1.06
short cue,single feature,R_1IXVr7a4rbLclDy,0.875,1.36
short cue,single feature,R_1jCgwQdSLoXJHUV,1,1.11
short cue,single feature,R_1jDKVL7IiGl9Yg2,0.813,1.42
short cue,single feature,R_1jE8xih7Lg9IirX,0.938,0.504
short cue,single feature,R_1jH3pdKIvdSHNIY,0.938,0.757
short cue,single feature,R_1jrzi2l761541zF,0.875,0.743
short cue,single feature,R_1K3eLYRF0WM0F1x,1,1.63
short cue,single feature,R_1K6KGucq5uhaFzv,0.938,1.4
short cue,single feature,R_1K71a7Ou0dd9RDl,1,1.19
short cue,single feature,R_1KqDdYqdsxJyWIf,0.938,0.794
short cue,single feature,R_1LXmTvk5iLuGEaA,0.938,0.744
short cue,single feature,R_1lzzukvJq3atYiQ,0.75,0.627
short cue,single feature,R_1mC4cBupoC4tHV4,1,0.857
short cue,single feature,R_1mIULYprIrOv92G,0.938,0.737
short cue,single feature,R_1mmFOe3uknXraci,0.938,1.43
short cue,single feature,R_1nOO1BGaTXG8VNZ,0.938,0.999
short cue,single feature,R_1nOQ0qbgqQcSRz6,1,0.879
short cue,single feature,R_1OkOyQCupky29ws,0.875,0.758
short cue,single feature,R_1OVnUIQoDvuoLoa,0.938,1.47
short cue,single feature,R_1PemspRhIIq93Jq,0.875,1.64
short cue,single feature,R_1pMrEEZMbPml0WU,1,0.761
short cue,single feature,R_1pukYYnbpsfMrZv,1,0.691
short cue,single feature,R_1PXVhaM73VwX7i7,1,0.463
short cue,single feature,R_1QDSGYxg9iGBQ1N,1,1.13
short cue,single feature,R_1qXpoOypYbjTRWl,1,1.87
short cue,single feature,R_1rla5wg2eJeofgU,1,0.665
short cue,single feature,R_1rvojTzRtsDhwWZ,1,0.562
short cue,single feature,R_1XqCDwzg1i2Esxj,0.875,1.44
short cue,single feature,R_20Mv4w5vYeNCTls,1,0.897
short cue,single feature,R_23TwjQv7jVMZAHh,1,1.51
short cue,single feature,R_24HieJfWwUqqVSw,0.75,1.07
short cue,single feature,R_24jTtLg98nGv99c,1,0.569
short cue,single feature,R_25BzCJwLFrqdpOi,0.438,2.6
short cue,single feature,R_27EkFokF3zDCAFg,0.938,0.785
short cue,single feature,R_27HkygMlXuzFDss,0.875,1.39
short cue,single feature,R_28B8ByTcmPbYYBi,1,0.817
short cue,single feature,R_290a4seCfd02VPe,1,0.853
short cue,single feature,R_29buJYsXisup2Mb,0.75,1.82
short cue,single feature,R_2aDYCLDeHnDcoTK,0.938,0.725
short cue,single feature,R_2AZHWSSUZ7gAeVu,0.938,1.64
short cue,single feature,R_2BnRYuqRU9MgxDH,1,0.89
short cue,single feature,R_2BtIrCsNLg3M5Hv,0.938,1.13
short cue,single feature,R_2c6m9mRMP3vRtxF,0.938,1.18
short cue,single feature,R_2cc7FPRMpuGx2CV,0.938,0.811
short cue,single feature,R_2CDt4ymTrZ6kFn0,0.938,2.15
short cue,single feature,R_2cnGgIRvbYUU2JM,1,1.05
short cue,single feature,R_2cvhE0HTQ1JO49j,0.938,1.14
short cue,single feature,R_2dYKuSke1t2VOfa,1,0.686
short cue,single feature,R_2f6VCNeHmcSqTrE,0.875,0.552
short cue,single feature,R_2fD1bJjW95gw3LB,1,0.945
short cue,single feature,R_2P1NXSwrNBPPbSy,0.938,1.32
short cue,single feature,R_2P5OftLBu8Xnm63,1,0.8
short cue,single feature,R_2pJiC30bA23mBP9,1,0.976
short cue,single feature,R_2QggTeu9uNjR2Kz,1,1.73
short cue,single feature,R_2Qn8nKQlmurWj6x,0.75,1.58
short cue,single feature,R_2qxGC4cTbe7xhyS,1,0.742
short cue,single feature,R_2R81qJfBkmFANkJ,0.938,1.43
short cue,single feature,R_2rVd3Udq0Naa4tm,0.938,0.808
short cue,single feature,R_2s5BrOZwyfMmXNT,0.938,0.996
short cue,single feature,R_2saKX0rCpQMSpWC,1,0.706
short cue,single feature,R_2sZwXaQWcDrXX4J,1,0.644
short cue,single feature,R_2t2RITW5Msrt0v1,0.938,1.06
short cue,single feature,R_2t8PKxoTop4myWX,1,1.21
short cue,single feature,R_2TvjCe31vsmiZgF,0.875,0.895
short cue,single feature,R_2tzNr5GcFWibgNj,0.938,1.22
short cue,single feature,R_2uaROXK2JM6R5KN,1,0.778
short cue,single feature,R_2uEyL6gg252E1VJ,0.938,0.955
short cue,single feature,R_2uPd3IAgL1aElYJ,0.625,0.73
short cue,single feature,R_2UYj6qVJqb6JhXS,0.813,0.92
short cue,single feature,R_2v1EkCyV15Ok7D5,1,0.655
short cue,single feature,R_2v6M4LykwnHQpey,1,0.731
short cue,single feature,R_2wgkGKCmXhgbs6f,1,0.913
short cue,single feature,R_2whKJfx0Nt043dd,1,0.498
short cue,single feature,R_2xIZjV9sIl4RF6P,1,1.21
short cue,single feature,R_2xxfsrIN77B2IyP,1,1.79
short cue,single feature,R_2Y5SgzE2hzm4IzP,0.813,1.24
short cue,single feature,R_2zMG3pjpYVG6q9D,1,1.71
short cue,single feature,R_2zZOxm6mvhN3djv,1,0.565
short cue,single feature,R_31HQAyCP0raT1FV,0.938,0.54
short cue,single feature,R_32Ph5gf2egyE3BQ,1,0.981
short cue,single feature,R_32SfLOnCsAkGpkr,0.875,0.954
short cue,single feature,R_389Zio7QxIjX2Gl,0.938,1.47
short cue,single feature,R_3CE2psUILAye8Gw,1,1.55
short cue,single feature,R_3CQ5KT4CZBYWAlC,0.938,0.771
short cue,single feature,R_3dG1KAXAFwYYSNa,0.875,1.31
short cue,single feature,R_3dYB6FtZaYKmnQI,1,0.737
short cue,single feature,R_3ekQwKF3mgu5b6t,0.938,0.614
short cue,single feature,R_3emJvrH8C0R8XAf,0.875,1.03
short cue,single feature,R_3EnIpSKfpoFxj4q,0.813,1.69
short cue,single feature,R_3F4Nuu63mcg282m,0.938,1.21
short cue,single feature,R_3fekyhJ51vsHhVz,0.938,0.671
short cue,single feature,R_3huTrvGn33dOCmD,0.938,1.17
short cue,single feature,R_3hxsgJPCQz6ODRf,0.688,1.33
short cue,single feature,R_3I6Ku341O3voRKF,0.875,1.65
short cue,single feature,R_3IawjgtbqJ8vZS1,1,0.9
short cue,single feature,R_3IbLExNViiL7Wmj,0.813,1.22
short cue,single feature,R_3isy7djZDjX51Zy,1,1.08
short cue,single feature,R_3iUBe2A2sqTNxe6,0.938,0.482
short cue,single feature,R_3J5dZzQpHZlbptE,0.625,1.34
short cue,single feature,R_3J7WamqLp1arSYg,0.938,0.906
short cue,single feature,R_3J8imcd2CT8E7nV,1,0.97
short cue,single feature,R_3JepjzwRIn4QNMa,0.938,1.62
short cue,single feature,R_3JKuKZTaXlZlS9L,1,1.14
short cue,single feature,R_3L0GKcwhfD3ONGp,1,0.818
short cue,single feature,R_3L8bKSLPWWYQbb1,1,0.998
short cue,single feature,R_3lA2P9y5IuW1K16,0.813,0.596
short cue,single feature,R_3lQSewC3zD0cqPm,0.938,0.611
short cue,single feature,R_3lW8WmUtn8ktnqb,1,1.88
short cue,single feature,R_3LYmXrQqAEkquZp,0.875,1.01
short cue,single feature,R_3m29EB99jBC3eYM,0.938,0.75
short cue,single feature,R_3mfrYYubAvKcVXD,1,0.759
short cue,single feature,R_3MrsBALpPMDdc4K,0.938,1.63
short cue,single feature,R_3MsZ1FtrecdI6Bk,1,0.957
short cue,single feature,R_3ni4oB2dXSyqVt5,0.938,0.652
short cue,single feature,R_3NLrAGnHeCcusnN,1,1.15
short cue,single feature,R_3nTN2on5k76PSqy,1,0.831
short cue,single feature,R_3nuRnyn8F7V1zzY,0.375,1.63
short cue,single feature,R_3nvCR77A2gIXUnU,0.875,0.924
short cue,single feature,R_3OijgTkqK3N1vDR,1,1.28
short cue,single feature,R_3PH8KwGY7M572k7,1,1.16
short cue,single feature,R_3PhNSDcozSxV4x6,0.938,0.485
short cue,single feature,R_3PHnuh1NwQxBUke,1,1.05
short cue,single feature,R_3plRloA3DMCWRlm,0.875,0.807
short cue,single feature,R_3PoF0xbH4zPk6H9,1,0.872
short cue,single feature,R_3PUkBY8ioPt2QHk,1,0.882
short cue,single feature,R_3qE9UFs34ohzB4u,1,0.983
short cue,single feature,R_3qIGvV1gBPeGAF3,1,1.07
short cue,single feature,R_3qqgOHNsjhwxEbU,1,0.956
short cue,single feature,R_3r1hJN0OmOW9eWt,0.875,1.08
short cue,single feature,R_3r2uzs1xxGdN7Xt,0.75,1.65
short cue,single feature,R_3R2V7o3AKvD3riN,1,1.04
short cue,single feature,R_3sgjFLFAcfatVu1,0.875,0.882
short cue,single feature,R_3snnTFxEmMWchE3,0.938,1.37
short cue,single feature,R_4HGqzV1TmoKnmRb,0.875,1.52
short cue,single feature,R_4UcujUnUkeMAjcd,0.938,1.17
short cue,single feature,R_5AccJZEMv9dA7ZL,1,1.79
short cue,single feature,R_5Bl0sD2ma6kOenD,1,1.93
short cue,single feature,R_6QoG7SGfNSA5MY1,0.938,1.28
short cue,single feature,R_78aLaJZ9ov7E4z7,0.875,1.18
short cue,single feature,R_7QYLh7Cv4ho9ne9,1,0.926
short cue,single feature,R_8039DfpRFz4mdlD,0.875,1.15
short cue,single feature,R_81zsKze4hKiO3Ch,0.75,0.692
short cue,single feature,R_821ywZ3Ur7opgmR,0.938,1.69
short cue,single feature,R_8qYu2CCKRBiPBjb,1,0.902
short cue,single feature,R_AhqftoXBoaz9xId,1,1.32
short cue,single feature,R_aXyHoAyLu9CDc4N,0.813,1.04
short cue,single feature,R_BEpHnJisiwxS1z3,0.875,1.58
short cue,single feature,R_bj5pW4Iu3tLbUnT,0.938,2.13
short cue,single feature,R_bJ8LN8hW9Wr5SFj,1,0.596
short cue,single feature,R_BV2jiQRnLfyGBYl,1,0.907
short cue,single feature,R_Cjijzqk1J6xkLdf,1,0.746
short cue,single feature,R_d6C5372Rri91D57,1,1.46
short cue,single feature,R_DcbIYJJOl9NfnSV,0.75,0.855
short cue,single feature,R_dh9Z16ZeR9OmSJj,1,0.737
short cue,single feature,R_dm7E2sdo1YUjT3z,1,0.433
short cue,single feature,R_dmY5Tc0WANqnPs5,1,1.48
short cue,single feature,R_eai96tm4PUo2JmF,1,0.802
short cue,single feature,R_eJrfTYcTp9qL7ix,1,0.984
short cue,single feature,R_eyNfgTiSRXT8Xi9,0.938,1.06
short cue,single feature,R_O0WT1fmWD73IgCZ,0.938,1.19
short cue,single feature,R_Ope2sXA3sL6z35T,1,0.729
short cue,single feature,R_PA36VyjszG9W9gt,0.75,1
short cue,single feature,R_pufazghR2YH4Vqx,0.938,1.16
short cue,single feature,R_PYUFtJ6v69P19WF,0.938,0.799
short cue,single feature,R_Q3QAyLhzVGkm1hL,0.938,0.996
short cue,single feature,R_r25ZrJt80L0xZ5v,0.938,1.02
short cue,single feature,R_sZRf0Q5e9LGW9gJ,1,2.34
short cue,single feature,R_tLqTSkDsUZvWP4t,0.938,0.792
short cue,single feature,R_tQjTkAdN6h1rHHP,0.938,0.873
short cue,single feature,R_UA47gf9TzaRpJ0B,1,1.4
short cue,single feature,R_UnfbYQPONiXwHgB,1,1.06
short cue,single feature,R_vcofmMoT48YgqGd,0.938,1.3
short cue,single feature,R_vdAXj8lKTQiuvLj,1,2.12
short cue,single feature,R_vl7yAhjMq73ut4l,1,1.01
short cue,single feature,R_VPabY1AJYIyCZPz,0.938,1.22
short cue,single feature,R_W8LdRMuNzFlfzfX,1,0.599
short cue,single feature,R_WfBh84bVieh94u5,0.75,1.49
short cue,single feature,R_xfUcAaPbjk0g6Jz,1,0.768
short cue,single feature,R_Y050be3d1qTgt21,1,0.972
short cue,single feature,R_ykzlIRPd0KX2ZW1,1,1
short cue,single feature,R_ypQ4ZCs1p2l24eJ,0.938,0.926
short cue,single feature,R_yPWGGeD3XC6CB0t,0.938,0.867
short cue,single feature,R_1240oKwSUYFSJUY,NaN,NaN
short cue,single feature,R_125qGAPsEKNgCik,NaN,NaN
short cue,single feature,R_1BYsxPc3DVzRRdc,NaN,NaN
short cue,single feature,R_1C4075atnBURXV9,NaN,NaN
short cue,single feature,R_1Ca7oDDfGUuqpD2,NaN,NaN
short cue,single feature,R_1DUQTsUdLXCAotg,NaN,NaN
short cue,single feature,R_1Ed18J86Ydnz5JK,NaN,NaN
short cue,single feature,R_1F3O1RwVVn1ANjS,NaN,NaN
short cue,single feature,R_1fd9g37kVcLlQon,NaN,NaN
short cue,single feature,R_1fjeMABd9YtFdM2,NaN,NaN
short cue,single feature,R_1FkyCxrQzCKlVM3,NaN,NaN
short cue,single feature,R_1FlZaoI26lrL1xW,NaN,NaN
short cue,single feature,R_1FQy7LAFBlt3sbw,NaN,NaN
short cue,single feature,R_1FzvTdctlBl6mau,NaN,NaN
short cue,single feature,R_1GEw2ntVr6WT5FY,NaN,NaN
short cue,single feature,R_1gGFiI9dwPgNWnF,NaN,NaN
short cue,single feature,R_1gTnf5neAjKhFhT,NaN,NaN
short cue,single feature,R_1H5WiYRCLXLoMr6,NaN,NaN
short cue,single feature,R_1hKL5I25Q84xW4U,NaN,NaN
short cue,single feature,R_1hXp8VCud7SMiKb,NaN,NaN
short cue,single feature,R_1IagvrDfWeu1SzI,NaN,NaN
short cue,single feature,R_1iffR2ZzRyikKgD,NaN,NaN
short cue,single feature,R_1jrMskfuP7Mrr9S,NaN,NaN
short cue,single feature,R_1K2LTDdSTkk0CkO,NaN,NaN
short cue,single feature,R_1KkDDjZQonL8jXf,NaN,NaN
short cue,single feature,R_1lo8TnSLVLCPrMI,NaN,NaN
short cue,single feature,R_1Nex25Z07JEPqPT,NaN,NaN
short cue,single feature,R_1oAMtAsotlpba75,NaN,NaN
short cue,single feature,R_1oBEFfxegvaFxqs,NaN,NaN
short cue,single feature,R_1OE6gsnJdCYDJNp,NaN,NaN
short cue,single feature,R_1OJJIMbAOHmEsc6,NaN,NaN
short cue,single feature,R_1onlnd0PSlmh0kP,NaN,NaN
short cue,single feature,R_1Oy5gti2oOMkrmx,NaN,NaN
short cue,single feature,R_1pJPjmN0ZA5yTy2,NaN,NaN
short cue,single feature,R_1ptx896QKfU4151,NaN,NaN
short cue,single feature,R_1Q0nnQSbpfMIzl8,NaN,NaN
short cue,single feature,R_1QcQ8lM8sMgbe9Z,NaN,NaN
short cue,single feature,R_1QhHQgn3oncjPVH,NaN,NaN
short cue,single feature,R_1r9CI6AFSBMawII,NaN,NaN
short cue,single feature,R_2107Kbqwjw5sjVi,NaN,NaN
short cue,single feature,R_21A0Opwy47DGP0D,NaN,NaN
short cue,single feature,R_21ixygMv7kGQldy,NaN,NaN
short cue,single feature,R_232mnWKrVorZxtV,NaN,NaN
short cue,single feature,R_23UGi46yIwlgRIg,NaN,NaN
short cue,single feature,R_23V6KyyFTKNSfr0,NaN,NaN
short cue,single feature,R_24f2Xj2zVejGVvr,NaN,NaN
short cue,single feature,R_24MjDzYaj8vSl2F,NaN,NaN
short cue,single feature,R_26aTxals5ya98Bn,NaN,NaN
short cue,single feature,R_27I2lMBC4C9HqXh,NaN,NaN
short cue,single feature,R_27IKiFTRUeouja1,NaN,NaN
short cue,single feature,R_27TjhkHUtsmEKXv,NaN,NaN
short cue,single feature,R_29buiFpEHzEyviM,NaN,NaN
short cue,single feature,R_2AGbTgxStxS8OK7,NaN,NaN
short cue,single feature,R_2ASEGOsJ8SHSVr5,NaN,NaN
short cue,single feature,R_2bHPDYy6X92e2YW,NaN,NaN
short cue,single feature,R_2Bu63NcF98ifXiE,NaN,NaN
short cue,single feature,R_2CTk31LB5KSXTUK,NaN,NaN
short cue,single feature,R_2cubeyiZDy5kcWK,NaN,NaN
short cue,single feature,R_2D5fuTu0fyLlRoG,NaN,NaN
short cue,single feature,R_2dH0HFAfxeETPyV,NaN,NaN
short cue,single feature,R_2diq2w8gEnf5L8z,NaN,NaN
short cue,single feature,R_2DRKnOvAi7cEOEe,NaN,NaN
short cue,single feature,R_2e2xTrAELL35qnU,NaN,NaN
short cue,single feature,R_2EAwGG7T8u9elvy,NaN,NaN
short cue,single feature,R_2EGbNncbkrLeOBn,NaN,NaN
short cue,single feature,R_2fBULLTffGRBWLb,NaN,NaN
short cue,single feature,R_2fesTAMA2X5bx5T,NaN,NaN
short cue,single feature,R_2fvMbaH7XgyVyCF,NaN,NaN
short cue,single feature,R_2PutYEFsewiz88m,NaN,NaN
short cue,single feature,R_2PzXxMCgeJjWWLk,NaN,NaN
short cue,single feature,R_2q9ip8BsXKWy3tB,NaN,NaN
short cue,single feature,R_2qCYwbcshBGMWl9,NaN,NaN
short cue,single feature,R_2RPRywAKJIJoXwq,NaN,NaN
short cue,single feature,R_2sSBN4IUEWRzEHE,NaN,NaN
short cue,single feature,R_2t3eKQMwJ13cTxu,NaN,NaN
short cue,single feature,R_2t5VMWadJZXwhol,NaN,NaN
short cue,single feature,R_2tKElLKJ2RzYeOL,NaN,NaN
short cue,single feature,R_2TOewpP52D1ZcQi,NaN,NaN
short cue,single feature,R_2TvIpggb40wzcMj,NaN,NaN
short cue,single feature,R_2Ugx54Yz1N7CJ36,NaN,NaN
short cue,single feature,R_2UWLzuZCkACVgCP,NaN,NaN
short cue,single feature,R_2uZFhWaBfnO4ECU,NaN,NaN
short cue,single feature,R_2VBBNsozbzxpfT9,NaN,NaN
short cue,single feature,R_2Vx6MwTvzph2nt3,NaN,NaN
short cue,single feature,R_2w5NkTjpk5sIZmL,NaN,NaN
short cue,single feature,R_2z5D2HPnn3XvNKK,NaN,NaN
short cue,single feature,R_2z5xbqVjjSIyJdo,NaN,NaN
short cue,single feature,R_2zAzUdW0VLW47Ua,NaN,NaN
short cue,single feature,R_2zOyxhAfuZbfaqm,NaN,NaN
short cue,single feature,R_302H874OqnSbmug,NaN,NaN
short cue,single feature,R_3061vbhI41l7m5V,NaN,NaN
short cue,single feature,R_31zRT6XRWDLt6XR,NaN,NaN
short cue,single feature,R_325E8Zcstn7PYYf,NaN,NaN
short cue,single feature,R_32X7zIltyrBl2XJ,NaN,NaN
short cue,single feature,R_33gvmuPR94pwSQR,NaN,NaN
short cue,single feature,R_33wriurPRqAICJQ,NaN,NaN
short cue,single feature,R_3CH6GYzeXMmQ3BR,NaN,NaN
short cue,single feature,R_3dYRf1LJJY5sNDQ,NaN,NaN
short cue,single feature,R_3dYYZ1eB57mzvcP,NaN,NaN
short cue,single feature,R_3E9zqUUokucmyvi,NaN,NaN
short cue,single feature,R_3EXNIE6ibfayydJ,NaN,NaN
short cue,single feature,R_3F54OWKljGjDYun,NaN,NaN
short cue,single feature,R_3fftJphDI5wp8jD,NaN,NaN
short cue,single feature,R_3fIafKngtt8LCdv,NaN,NaN
short cue,single feature,R_3G3aqKAxalampJB,NaN,NaN
short cue,single feature,R_3GfEE0tSJtpYpDK,NaN,NaN
short cue,single feature,R_3gMLdLQylpAUOCz,NaN,NaN
short cue,single feature,R_3GrJEh3BPMqoUIE,NaN,NaN
short cue,single feature,R_3gSdxynZBUsA24l,NaN,NaN
short cue,single feature,R_3GwicDp1Qe1fIYu,NaN,NaN
short cue,single feature,R_3Hov1y7dOtcDZlE,NaN,NaN
short cue,single feature,R_3Ht3R1VCyo41bf7,NaN,NaN
short cue,single feature,R_3Hzu7sZLBROTBKI,NaN,NaN
short cue,single feature,R_3Ic5XcXj3i1cbFL,NaN,NaN
short cue,single feature,R_3iFr8MpMy69byrN,NaN,NaN
short cue,single feature,R_3j0uBCOqMwUzlCW,NaN,NaN
short cue,single feature,R_3j9ApP6uO0ORpcw,NaN,NaN
short cue,single feature,R_3jAe4d8aowHEK53,NaN,NaN
short cue,single feature,R_3JCQVowq4SWDWhO,NaN,NaN
short cue,single feature,R_3JCuHa99Y2UioVU,NaN,NaN
short cue,single feature,R_3jSRUtmlwcSos3T,NaN,NaN
short cue,single feature,R_3jZIGhpufmzSmRG,NaN,NaN
short cue,single feature,R_3kANJhWZWQZHHzt,NaN,NaN
short cue,single feature,R_3kAQUBQH7gOE6L4,NaN,NaN
short cue,single feature,R_3koHaaGXSWbfZCH,NaN,NaN
short cue,single feature,R_3kq4Tx7qydJo7oB,NaN,NaN
short cue,single feature,R_3KxCDvIBCFGJlB2,NaN,NaN
short cue,single feature,R_3lQ7ThL8ft9I4Xd,NaN,NaN
short cue,single feature,R_3lQY2j5LMIXXK4u,NaN,NaN
short cue,single feature,R_3lxHPjKjHR4VSZX,NaN,NaN
short cue,single feature,R_3M5rXHlsQsfCfZ1,NaN,NaN
short cue,single feature,R_3NDueluChz5YLcK,NaN,NaN
short cue,single feature,R_3nGjakNTDKLeUI5,NaN,NaN
short cue,single feature,R_3nj6domOVc1jJjN,NaN,NaN
short cue,single feature,R_3NJrbvniVjhQgVe,NaN,NaN
short cue,single feature,R_3NUHxGL0DDAFsRc,NaN,NaN
short cue,single feature,R_3NV3o9ELxm8q0OB,NaN,NaN
short cue,single feature,R_3paGJTFEkF29ztH,NaN,NaN
short cue,single feature,R_3peQmhVVM6LZ8Rq,NaN,NaN
short cue,single feature,R_3PzqcG3ePjyMVoQ,NaN,NaN
short cue,single feature,R_3qU5FwC4OCJ7aqk,NaN,NaN
short cue,single feature,R_3Rl6FSFxxA5e8ma,NaN,NaN
short cue,single feature,R_3Rl6VEWOBQmKqU6,NaN,NaN
short cue,single feature,R_3RmwoIz93sstbuX,NaN,NaN
short cue,single feature,R_3svpurCda9KfwHp,NaN,NaN
short cue,single feature,R_3Vm6NBKASkpNULn,NaN,NaN
short cue,single feature,R_4MlrIKWtWMynXgJ,NaN,NaN
short cue,single feature,R_4V0pQt6VgkQw0lb,NaN,NaN
short cue,single feature,R_5zD75iREBKTihMt,NaN,NaN
short cue,single feature,R_6AkMGcTw5XpOoSd,NaN,NaN
short cue,single feature,R_87dG0u6RSBe8bpD,NaN,NaN
short cue,single feature,R_88lRNtWC8jzcvPr,NaN,NaN
short cue,single feature,R_9SIq53ZIw0UeCMp,NaN,NaN
short cue,single feature,R_9ZV7VYa4WgGSoPT,NaN,NaN
short cue,single feature,R_a8Keqoc6RqZXPj3,NaN,NaN
short cue,single feature,R_AFYcy8WqCbGhYSB,NaN,NaN
short cue,single feature,R_b1xBevGuDlgE5mp,NaN,NaN
short cue,single feature,R_bxcuLDEvGbOnKHT,NaN,NaN
short cue,single feature,R_ClZZ8iH4ih5ZuSd,NaN,NaN
short cue,single feature,R_dfYxqvX4G98rUXL,NaN,NaN
short cue,single feature,R_eKdyzfVrqfswb1n,NaN,NaN
short cue,single feature,R_esMmOCJbTcEsIq5,NaN,NaN
short cue,single feature,R_O0SCTkaxAB7vjA5,NaN,NaN
short cue,single feature,R_OBikbvVJp5ZcCOt,NaN,NaN
short cue,single feature,R_OjUO1JZhl881Wdr,NaN,NaN
short cue,single feature,R_OkxFT8Yi5pR6dsB,NaN,NaN
short cue,single feature,R_OPCfSDjGV5SHORr,NaN,NaN
short cue,single feature,R_pEoe2uY6YbOw3aF,NaN,NaN
short cue,single feature,R_PIpINaW6xp0qDD3,NaN,NaN
short cue,single feature,R_pK7U209871YpYIN,NaN,NaN
short cue,single feature,R_pngU1YVfrXpM6m5,NaN,NaN
short cue,single feature,R_PSSk558zgwsdfq1,NaN,NaN
short cue,single feature,R_pT8XhCOwudJrdq9,NaN,NaN
short cue,single feature,R_Pwhzf2X9FTJWwcp,NaN,NaN
short cue,single feature,R_qL4FaXWkk1AqEmt,NaN,NaN
short cue,single feature,R_QoG98GIXlyTTQCB,NaN,NaN
short cue,single feature,R_R838SwdXuvvg13j,NaN,NaN
short cue,single feature,R_rcHQpWAv7AbsluV,NaN,NaN
short cue,single feature,R_rkiqrtdH01X2Uz7,NaN,NaN
short cue,single feature,R_rpa23bPTMqxRuy5,NaN,NaN
short cue,single feature,R_RPRRh5b9RJjsLWF,NaN,NaN
short cue,single feature,R_RxCmnVP4h0M2Iet,NaN,NaN
short cue,single feature,R_SUAv0Djpf96vXsB,NaN,NaN
short cue,single feature,R_szedVFAI7mc8uqt,NaN,NaN
short cue,single feature,R_TjDuFk15r39Xrqh,NaN,NaN
short cue,single feature,R_u220n4MBxTrGIqB,NaN,NaN
short cue,single feature,R_uk7jLfoyyvrie5P,NaN,NaN
short cue,single feature,R_uk8lyne8BTwZWx3,NaN,NaN
short cue,single feature,R_vcRLjOIJganFB5L,NaN,NaN
short cue,single feature,R_vf2rDe2loSzFI4h,NaN,NaN
short cue,single feature,R_vMGeXCE2A7fFihP,NaN,NaN
short cue,single feature,R_VO1OFG6TLIlFTbj,NaN,NaN
short cue,single feature,R_voSsFXEsEVlpeMx,NaN,NaN
short cue,single feature,R_xaQjSryVetgbxMR,NaN,NaN
short cue,single feature,R_xiuZL8oQedG2nrb,NaN,NaN
short cue,single feature,R_Y3NmOCLnLbfmdRT,NaN,NaN
short cue,single feature,R_ykWwfg34VBujl0B,NaN,NaN
short cue,single feature,R_yPWVvpu60ycQ8P7,NaN,NaN
short cue,single feature,R_z0je8cRGh1eQ8Rb,NaN,NaN
short cue,single feature,R_Z9PxP0CExYG8397,NaN,NaN
short cue,single feature,R_ZahaFNCfOgy05xL,NaN,NaN
short cue,single feature,R_ZaxZDyOScZVjzz3,NaN,NaN
short cue,single feature,R_zZ3GrNWCcyKf98B,NaN,NaN
