EXP_Block,Level,Presentation_style,Q_id,Question,Trial_type,birth_year,browser_codename,browser_name,browser_version,correct,correct_response,ctest_file,cue,cue_1,date_startdate,date_startdateUTC,date_starttime,experiment_debug,experiment_parameters,experiment_pilot,experiment_taskname,experiment_taskversion,gap,gender_code,identifier,jatosStudyResultId,jatosVersion,lang_code,prolific_participant_id,prolific_session_id,prolific_study_id,queryParams_PROLIFIC_PID,queryParams_SESSION_ID,queryParams_STUDY_ID,response,response_clang,response_time,screen_availableHeight,screen_availableWidth,screen_colorDepth,screen_height,screen_pixelDepth,screen_screenX,screen_screenY,screen_width,shape,system_os,target_color,target_shape,test_file,test_topic
None,None,None,None,None,None,None,Mozilla,Netscape,"5.0 (Windows NT 10.0; Win64; x64) AppleWebKit/537.36 (KHTML, like Gecko) Chrome/111.0.0.0 Safari/537.36",undefined,None,None,None,None,30-02-23,30-02-23,11:03:03,0,0,0,0,0,None,None,h52z3fcfr,245193,3.8.1,None,5f74fd83ed11b81620baf105,6425a47a1873710b94079612,641bb2543ae0d27e600659f5,5f74fd83ed11b81620baf105,6425a47a1873710b94079612,641bb2543ae0d27e600659f5,a,m,19968,1040,1920,24,1080,24,-1920,0,1920,None,Win32,None,None,None,consent
None,None,None,None,請問您的性別？<br/>Your gender?<br/>輸入對應選項的號碼表達您的回答<br>Please select your best option.,None,,Mozilla,Netscape,"5.0 (Windows NT 10.0; Win64; x64) AppleWebKit/537.36 (KHTML, like Gecko) Chrome/111.0.0.0 Safari/537.36",undefined,None,None,None,None,30-02-23,30-02-23,11:03:03,0,0,0,0,0,None,1,h52z3fcfr,245193,3.8.1,,5f74fd83ed11b81620baf105,6425a47a1873710b94079612,641bb2543ae0d27e600659f5,5f74fd83ed11b81620baf105,6425a47a1873710b94079612,641bb2543ae0d27e600659f5,1,m,8703,1040,1920,24,1080,24,-1920,0,1920,None,Win32,None,None,None,Pre_survey
None,None,None,None,請問您的性別？<br/>Your gender?<br/>輸入對應選項的號碼表達您的回答<br>Please select your best option.,None,,Mozilla,Netscape,"5.0 (Windows NT 10.0; Win64; x64) AppleWebKit/537.36 (KHTML, like Gecko) Chrome/111.0.0.0 Safari/537.36",undefined,None,None,None,None,30-02-23,30-02-23,11:03:03,0,0,0,0,0,None,1,h52z3fcfr,245193,3.8.1,,5f74fd83ed11b81620baf105,6425a47a1873710b94079612,641bb2543ae0d27e600659f5,5f74fd83ed11b81620baf105,6425a47a1873710b94079612,641bb2543ae0d27e600659f5,enter,m,1740,1040,1920,24,1080,24,-1920,0,1920,None,Win32,None,None,None,Pre_survey
None,None,None,None,請輸入您的出生西元年4位數字<br />Your birth year?<br />例如: 出生年月日是 2000/1/1<br />If your birthday is 2000/1/1<br />請輸入: 2000<br />Input: 2000,None,0,Mozilla,Netscape,"5.0 (Windows NT 10.0; Win64; x64) AppleWebKit/537.36 (KHTML, like Gecko) Chrome/111.0.0.0 Safari/537.36",undefined,None,None,None,None,30-02-23,30-02-23,11:03:03,0,0,0,0,0,None,,h52z3fcfr,245193,3.8.1,,5f74fd83ed11b81620baf105,6425a47a1873710b94079612,641bb2543ae0d27e600659f5,5f74fd83ed11b81620baf105,6425a47a1873710b94079612,641bb2543ae0d27e600659f5,0,m,6382,1040,1920,24,1080,24,-1920,0,1920,None,Win32,None,None,None,Pre_survey
None,None,None,None,請輸入您的出生西元年4位數字<br />Your birth year?<br />例如: 出生年月日是 2000/1/1<br />If your birthday is 2000/1/1<br />請輸入: 2000<br />Input: 2000,None,0,Mozilla,Netscape,"5.0 (Windows NT 10.0; Win64; x64) AppleWebKit/537.36 (KHTML, like Gecko) Chrome/111.0.0.0 Safari/537.36",undefined,None,None,None,None,30-02-23,30-02-23,11:03:03,0,0,0,0,0,None,,h52z3fcfr,245193,3.8.1,,5f74fd83ed11b81620baf105,6425a47a1873710b94079612,641bb2543ae0d27e600659f5,5f74fd83ed11b81620baf105,6425a47a1873710b94079612,641bb2543ae0d27e600659f5,enter,m,740,1040,1920,24,1080,24,-1920,0,1920,None,Win32,None,None,None,Pre_survey
None,None,None,None,請問你的母語是中文還是英文？<br/>Which is your native language? English or Chinese?<br/>輸入對應選項的號碼表達您的回答<br>Please select your best option.,None,,Mozilla,Netscape,"5.0 (Windows NT 10.0; Win64; x64) AppleWebKit/537.36 (KHTML, like Gecko) Chrome/111.0.0.0 Safari/537.36",undefined,None,None,None,None,30-02-23,30-02-23,11:03:03,0,0,0,0,0,None,,h52z3fcfr,245193,3.8.1,1,5f74fd83ed11b81620baf105,6425a47a1873710b94079612,641bb2543ae0d27e600659f5,5f74fd83ed11b81620baf105,6425a47a1873710b94079612,641bb2543ae0d27e600659f5,1,m,3991,1040,1920,24,1080,24,-1920,0,1920,None,Win32,None,None,None,Pre_survey
None,None,None,None,請問你的母語是中文還是英文？<br/>Which is your native language? English or Chinese?<br/>輸入對應選項的號碼表達您的回答<br>Please select your best option.,None,,Mozilla,Netscape,"5.0 (Windows NT 10.0; Win64; x64) AppleWebKit/537.36 (KHTML, like Gecko) Chrome/111.0.0.0 Safari/537.36",undefined,None,None,None,None,30-02-23,30-02-23,11:03:03,0,0,0,0,0,None,,h52z3fcfr,245193,3.8.1,1,5f74fd83ed11b81620baf105,6425a47a1873710b94079612,641bb2543ae0d27e600659f5,5f74fd83ed11b81620baf105,6425a47a1873710b94079612,641bb2543ae0d27e600659f5,enter,m,325,1040,1920,24,1080,24,-1920,0,1920,None,Win32,None,None,None,Pre_survey
None,0,None,8,我絕對不是這個「意思」，你不要誤會。<br/>上句「 」中的詞語意思和下面哪一個相同？,None,,Mozilla,Netscape,"5.0 (Windows NT 10.0; Win64; x64) AppleWebKit/537.36 (KHTML, like Gecko) Chrome/111.0.0.0 Safari/537.36",0,None,Chinese_test_tc.csv,None,None,30-02-23,30-02-23,11:03:03,0,0,0,0,0,None,,h52z3fcfr,245193,3.8.1,1,5f74fd83ed11b81620baf105,6425a47a1873710b94079612,641bb2543ae0d27e600659f5,5f74fd83ed11b81620baf105,6425a47a1873710b94079612,641bb2543ae0d27e600659f5,2,m,24675,1040,1920,24,1080,24,-1920,0,1920,None,Win32,None,None,Chinese_test_tc.csv,C
None,1,None,10,下列文句「 」中的詞語，何者可以用（ ）的詞語替代？,None,,Mozilla,Netscape,"5.0 (Windows NT 10.0; Win64; x64) AppleWebKit/537.36 (KHTML, like Gecko) Chrome/111.0.0.0 Safari/537.36",0,None,Chinese_test_tc.csv,None,None,30-02-23,30-02-23,11:03:03,0,0,0,0,0,None,,h52z3fcfr,245193,3.8.1,1,5f74fd83ed11b81620baf105,6425a47a1873710b94079612,641bb2543ae0d27e600659f5,5f74fd83ed11b81620baf105,6425a47a1873710b94079612,641bb2543ae0d27e600659f5,1,m,18762,1040,1920,24,1080,24,-1920,0,1920,None,Win32,None,None,Chinese_test_tc.csv,C
None,0,None,3,「當哥哥寫完功課時，媽媽說：_________」<br/>下面四個選項中的哪句話，最不可能是媽媽的說話內容？,None,,Mozilla,Netscape,"5.0 (Windows NT 10.0; Win64; x64) AppleWebKit/537.36 (KHTML, like Gecko) Chrome/111.0.0.0 Safari/537.36",1,None,Chinese_test_tc.csv,None,None,30-02-23,30-02-23,11:03:03,0,0,0,0,0,None,,h52z3fcfr,245193,3.8.1,1,5f74fd83ed11b81620baf105,6425a47a1873710b94079612,641bb2543ae0d27e600659f5,5f74fd83ed11b81620baf105,6425a47a1873710b94079612,641bb2543ae0d27e600659f5,3,m,8853,1040,1920,24,1080,24,-1920,0,1920,None,Win32,None,None,Chinese_test_tc.csv,C
None,2,None,18,下列「 」中的詞語，何組前後意義相同？,None,,Mozilla,Netscape,"5.0 (Windows NT 10.0; Win64; x64) AppleWebKit/537.36 (KHTML, like Gecko) Chrome/111.0.0.0 Safari/537.36",1,None,Chinese_test_tc.csv,None,None,30-02-23,30-02-23,11:03:03,0,0,0,0,0,None,,h52z3fcfr,245193,3.8.1,1,5f74fd83ed11b81620baf105,6425a47a1873710b94079612,641bb2543ae0d27e600659f5,5f74fd83ed11b81620baf105,6425a47a1873710b94079612,641bb2543ae0d27e600659f5,1,m,24148,1040,1920,24,1080,24,-1920,0,1920,None,Win32,None,None,Chinese_test_tc.csv,C
None,0,None,7,「_確定出遊日期，眾人_七嘴八舌的開始討論細節。」<br/>_中的連接詞最適合填入下列 哪一組？,None,,Mozilla,Netscape,"5.0 (Windows NT 10.0; Win64; x64) AppleWebKit/537.36 (KHTML, like Gecko) Chrome/111.0.0.0 Safari/537.36",1,None,Chinese_test_tc.csv,None,None,30-02-23,30-02-23,11:03:03,0,0,0,0,0,None,,h52z3fcfr,245193,3.8.1,1,5f74fd83ed11b81620baf105,6425a47a1873710b94079612,641bb2543ae0d27e600659f5,5f74fd83ed11b81620baf105,6425a47a1873710b94079612,641bb2543ae0d27e600659f5,4,m,9266,1040,1920,24,1080,24,-1920,0,1920,None,Win32,None,None,Chinese_test_tc.csv,C
None,1,None,12,下列「 」中的語詞，何者意思前後相同？,None,,Mozilla,Netscape,"5.0 (Windows NT 10.0; Win64; x64) AppleWebKit/537.36 (KHTML, like Gecko) Chrome/111.0.0.0 Safari/537.36",1,None,Chinese_test_tc.csv,None,None,30-02-23,30-02-23,11:03:03,0,0,0,0,0,None,,h52z3fcfr,245193,3.8.1,1,5f74fd83ed11b81620baf105,6425a47a1873710b94079612,641bb2543ae0d27e600659f5,5f74fd83ed11b81620baf105,6425a47a1873710b94079612,641bb2543ae0d27e600659f5,1,m,21063,1040,1920,24,1080,24,-1920,0,1920,None,Win32,None,None,Chinese_test_tc.csv,C
None,0,None,5,下列連接詞，何者使用最適切？,None,,Mozilla,Netscape,"5.0 (Windows NT 10.0; Win64; x64) AppleWebKit/537.36 (KHTML, like Gecko) Chrome/111.0.0.0 Safari/537.36",1,None,Chinese_test_tc.csv,None,None,30-02-23,30-02-23,11:03:03,0,0,0,0,0,None,,h52z3fcfr,245193,3.8.1,1,5f74fd83ed11b81620baf105,6425a47a1873710b94079612,641bb2543ae0d27e600659f5,5f74fd83ed11b81620baf105,6425a47a1873710b94079612,641bb2543ae0d27e600659f5,2,m,22594,1040,1920,24,1080,24,-1920,0,1920,None,Win32,None,None,Chinese_test_tc.csv,C
None,0,None,1,下列各組「 」內詞語意義，何者前後相同？,None,,Mozilla,Netscape,"5.0 (Windows NT 10.0; Win64; x64) AppleWebKit/537.36 (KHTML, like Gecko) Chrome/111.0.0.0 Safari/537.36",1,None,Chinese_test_tc.csv,None,None,30-02-23,30-02-23,11:03:03,0,0,0,0,0,None,,h52z3fcfr,245193,3.8.1,1,5f74fd83ed11b81620baf105,6425a47a1873710b94079612,641bb2543ae0d27e600659f5,5f74fd83ed11b81620baf105,6425a47a1873710b94079612,641bb2543ae0d27e600659f5,3,m,17898,1040,1920,24,1080,24,-1920,0,1920,None,Win32,None,None,Chinese_test_tc.csv,C
None,2,None,20,下列文句「 」中的量詞，何者使用是適當的？,None,,Mozilla,Netscape,"5.0 (Windows NT 10.0; Win64; x64) AppleWebKit/537.36 (KHTML, like Gecko) Chrome/111.0.0.0 Safari/537.36",1,None,Chinese_test_tc.csv,None,None,30-02-23,30-02-23,11:03:03,0,0,0,0,0,None,,h52z3fcfr,245193,3.8.1,1,5f74fd83ed11b81620baf105,6425a47a1873710b94079612,641bb2543ae0d27e600659f5,5f74fd83ed11b81620baf105,6425a47a1873710b94079612,641bb2543ae0d27e600659f5,1,m,18673,1040,1920,24,1080,24,-1920,0,1920,None,Win32,None,None,Chinese_test_tc.csv,C
None,2,None,19,下列「 」中的詞語，何者可以用後者代換，而不影響詞義？,None,,Mozilla,Netscape,"5.0 (Windows NT 10.0; Win64; x64) AppleWebKit/537.36 (KHTML, like Gecko) Chrome/111.0.0.0 Safari/537.36",1,None,Chinese_test_tc.csv,None,None,30-02-23,30-02-23,11:03:03,0,0,0,0,0,None,,h52z3fcfr,245193,3.8.1,1,5f74fd83ed11b81620baf105,6425a47a1873710b94079612,641bb2543ae0d27e600659f5,5f74fd83ed11b81620baf105,6425a47a1873710b94079612,641bb2543ae0d27e600659f5,3,m,17038,1040,1920,24,1080,24,-1920,0,1920,None,Win32,None,None,Chinese_test_tc.csv,C
None,0,None,9,下列哪個句子中的「決定」是動詞？,None,,Mozilla,Netscape,"5.0 (Windows NT 10.0; Win64; x64) AppleWebKit/537.36 (KHTML, like Gecko) Chrome/111.0.0.0 Safari/537.36",1,None,Chinese_test_tc.csv,None,None,30-02-23,30-02-23,11:03:03,0,0,0,0,0,None,,h52z3fcfr,245193,3.8.1,1,5f74fd83ed11b81620baf105,6425a47a1873710b94079612,641bb2543ae0d27e600659f5,5f74fd83ed11b81620baf105,6425a47a1873710b94079612,641bb2543ae0d27e600659f5,4,m,10492,1040,1920,24,1080,24,-1920,0,1920,None,Win32,None,None,Chinese_test_tc.csv,C
None,1,None,14,「參加運動競賽，__有光明的失敗，__要不榮譽的成功。」<br/>__中要填上下列哪一 組的連接詞最適切？,None,,Mozilla,Netscape,"5.0 (Windows NT 10.0; Win64; x64) AppleWebKit/537.36 (KHTML, like Gecko) Chrome/111.0.0.0 Safari/537.36",1,None,Chinese_test_tc.csv,None,None,30-02-23,30-02-23,11:03:03,0,0,0,0,0,None,,h52z3fcfr,245193,3.8.1,1,5f74fd83ed11b81620baf105,6425a47a1873710b94079612,641bb2543ae0d27e600659f5,5f74fd83ed11b81620baf105,6425a47a1873710b94079612,641bb2543ae0d27e600659f5,4,m,1541429,1040,1920,24,1080,24,-1920,0,1920,None,Win32,None,None,Chinese_test_tc.csv,C
None,1,None,11,下列各組句子的意思，何者可以用來說明友誼的重要？,None,,Mozilla,Netscape,"5.0 (Windows NT 10.0; Win64; x64) AppleWebKit/537.36 (KHTML, like Gecko) Chrome/111.0.0.0 Safari/537.36",1,None,Chinese_test_tc.csv,None,None,30-02-23,30-02-23,11:03:03,0,0,0,0,0,None,,h52z3fcfr,245193,3.8.1,1,5f74fd83ed11b81620baf105,6425a47a1873710b94079612,641bb2543ae0d27e600659f5,5f74fd83ed11b81620baf105,6425a47a1873710b94079612,641bb2543ae0d27e600659f5,3,m,31017,1040,1920,24,1080,24,-1920,0,1920,None,Win32,None,None,Chinese_test_tc.csv,C
None,0,None,6,以下句子，何者連接詞使用完全正確？,None,,Mozilla,Netscape,"5.0 (Windows NT 10.0; Win64; x64) AppleWebKit/537.36 (KHTML, like Gecko) Chrome/111.0.0.0 Safari/537.36",1,None,Chinese_test_tc.csv,None,None,30-02-23,30-02-23,11:03:03,0,0,0,0,0,None,,h52z3fcfr,245193,3.8.1,1,5f74fd83ed11b81620baf105,6425a47a1873710b94079612,641bb2543ae0d27e600659f5,5f74fd83ed11b81620baf105,6425a47a1873710b94079612,641bb2543ae0d27e600659f5,1,m,15403,1040,1920,24,1080,24,-1920,0,1920,None,Win32,None,None,Chinese_test_tc.csv,C
None,1,None,15,以下句子，何者連接詞使用完全正確？,None,,Mozilla,Netscape,"5.0 (Windows NT 10.0; Win64; x64) AppleWebKit/537.36 (KHTML, like Gecko) Chrome/111.0.0.0 Safari/537.36",1,None,Chinese_test_tc.csv,None,None,30-02-23,30-02-23,11:03:03,0,0,0,0,0,None,,h52z3fcfr,245193,3.8.1,1,5f74fd83ed11b81620baf105,6425a47a1873710b94079612,641bb2543ae0d27e600659f5,5f74fd83ed11b81620baf105,6425a47a1873710b94079612,641bb2543ae0d27e600659f5,3,m,11340,1040,1920,24,1080,24,-1920,0,1920,None,Win32,None,None,Chinese_test_tc.csv,C
None,2,None,17,「攪拌原料時，興奮地思考著等下要怎麼去裝飾；放進烤箱後小心翼翼地__，<br/> 深怕一個疏忽就焦黑；出爐那一刻__空間的__香氣，令人不禁想要偷吃。<br/>本書就是要__您進入烘烤點心這麼一個令人幸福的甜美世界。」<br/>上述文__ 處，最適合填入下列哪一組語詞？,None,,Mozilla,Netscape,"5.0 (Windows NT 10.0; Win64; x64) AppleWebKit/537.36 (KHTML, like Gecko) Chrome/111.0.0.0 Safari/537.36",1,None,Chinese_test_tc.csv,None,None,30-02-23,30-02-23,11:03:03,0,0,0,0,0,None,,h52z3fcfr,245193,3.8.1,1,5f74fd83ed11b81620baf105,6425a47a1873710b94079612,641bb2543ae0d27e600659f5,5f74fd83ed11b81620baf105,6425a47a1873710b94079612,641bb2543ae0d27e600659f5,1,m,24008,1040,1920,24,1080,24,-1920,0,1920,None,Win32,None,None,Chinese_test_tc.csv,C
None,1,None,13,下列哪一選項前後兩句的意思相同？,None,,Mozilla,Netscape,"5.0 (Windows NT 10.0; Win64; x64) AppleWebKit/537.36 (KHTML, like Gecko) Chrome/111.0.0.0 Safari/537.36",1,None,Chinese_test_tc.csv,None,None,30-02-23,30-02-23,11:03:03,0,0,0,0,0,None,,h52z3fcfr,245193,3.8.1,1,5f74fd83ed11b81620baf105,6425a47a1873710b94079612,641bb2543ae0d27e600659f5,5f74fd83ed11b81620baf105,6425a47a1873710b94079612,641bb2543ae0d27e600659f5,3,m,11553,1040,1920,24,1080,24,-1920,0,1920,None,Win32,None,None,Chinese_test_tc.csv,C
None,0,None,2,下列句子中，何者「 」中的詞語意思是相同的？,None,,Mozilla,Netscape,"5.0 (Windows NT 10.0; Win64; x64) AppleWebKit/537.36 (KHTML, like Gecko) Chrome/111.0.0.0 Safari/537.36",1,None,Chinese_test_tc.csv,None,None,30-02-23,30-02-23,11:03:03,0,0,0,0,0,None,,h52z3fcfr,245193,3.8.1,1,5f74fd83ed11b81620baf105,6425a47a1873710b94079612,641bb2543ae0d27e600659f5,5f74fd83ed11b81620baf105,6425a47a1873710b94079612,641bb2543ae0d27e600659f5,2,m,9230,1040,1920,24,1080,24,-1920,0,1920,None,Win32,None,None,Chinese_test_tc.csv,C
None,0,None,4,阿英對小華說：「每次出事你都不自己想辦法解決，這次我決定不幫你了！」<br/>從阿英的話中可以推論：,None,,Mozilla,Netscape,"5.0 (Windows NT 10.0; Win64; x64) AppleWebKit/537.36 (KHTML, like Gecko) Chrome/111.0.0.0 Safari/537.36",0,None,Chinese_test_tc.csv,None,None,30-02-23,30-02-23,11:03:03,0,0,0,0,0,None,,h52z3fcfr,245193,3.8.1,1,5f74fd83ed11b81620baf105,6425a47a1873710b94079612,641bb2543ae0d27e600659f5,5f74fd83ed11b81620baf105,6425a47a1873710b94079612,641bb2543ae0d27e600659f5,1,m,8632,1040,1920,24,1080,24,-1920,0,1920,None,Win32,None,None,Chinese_test_tc.csv,C
None,1,None,16,下列選項「 」中的詞語，何者前後的詞性及詞義相同？,None,,Mozilla,Netscape,"5.0 (Windows NT 10.0; Win64; x64) AppleWebKit/537.36 (KHTML, like Gecko) Chrome/111.0.0.0 Safari/537.36",1,None,Chinese_test_tc.csv,None,None,30-02-23,30-02-23,11:03:03,0,0,0,0,0,None,,h52z3fcfr,245193,3.8.1,1,5f74fd83ed11b81620baf105,6425a47a1873710b94079612,641bb2543ae0d27e600659f5,5f74fd83ed11b81620baf105,6425a47a1873710b94079612,641bb2543ae0d27e600659f5,4,m,14664,1040,1920,24,1080,24,-1920,0,1920,None,Win32,None,None,Chinese_test_tc.csv,C
None,0,None,7,Please separate your garbage and _______ it in the appropriate containers.,None,,Mozilla,Netscape,"5.0 (Windows NT 10.0; Win64; x64) AppleWebKit/537.36 (KHTML, like Gecko) Chrome/111.0.0.0 Safari/537.36",1,None,Chinese_test_tc.csv,None,None,30-02-23,30-02-23,11:03:03,0,0,0,0,0,None,,h52z3fcfr,245193,3.8.1,1,5f74fd83ed11b81620baf105,6425a47a1873710b94079612,641bb2543ae0d27e600659f5,5f74fd83ed11b81620baf105,6425a47a1873710b94079612,641bb2543ae0d27e600659f5,2,m,6654,1040,1920,24,1080,24,-1920,0,1920,None,Win32,None,None,English_test.csv,E
None,1,None,15,_______ many desirable qualities which make it a commercially very useful metal.,None,,Mozilla,Netscape,"5.0 (Windows NT 10.0; Win64; x64) AppleWebKit/537.36 (KHTML, like Gecko) Chrome/111.0.0.0 Safari/537.36",1,None,Chinese_test_tc.csv,None,None,30-02-23,30-02-23,11:03:03,0,0,0,0,0,None,,h52z3fcfr,245193,3.8.1,1,5f74fd83ed11b81620baf105,6425a47a1873710b94079612,641bb2543ae0d27e600659f5,5f74fd83ed11b81620baf105,6425a47a1873710b94079612,641bb2543ae0d27e600659f5,2,m,8140,1040,1920,24,1080,24,-1920,0,1920,None,Win32,None,None,English_test.csv,E
None,0,None,4,"Mom, Johnny’s mother doesn’t have enough chairs for her dinner guests.She wants to <br/>borrow one of _______.",None,,Mozilla,Netscape,"5.0 (Windows NT 10.0; Win64; x64) AppleWebKit/537.36 (KHTML, like Gecko) Chrome/111.0.0.0 Safari/537.36",1,None,Chinese_test_tc.csv,None,None,30-02-23,30-02-23,11:03:03,0,0,0,0,0,None,,h52z3fcfr,245193,3.8.1,1,5f74fd83ed11b81620baf105,6425a47a1873710b94079612,641bb2543ae0d27e600659f5,5f74fd83ed11b81620baf105,6425a47a1873710b94079612,641bb2543ae0d27e600659f5,4,m,12161,1040,1920,24,1080,24,-1920,0,1920,None,Win32,None,None,English_test.csv,E
None,1,None,12,"_______ newspaper reports, flooding in the area near the river due to the storm has <br/>been much more serious than expected.",None,,Mozilla,Netscape,"5.0 (Windows NT 10.0; Win64; x64) AppleWebKit/537.36 (KHTML, like Gecko) Chrome/111.0.0.0 Safari/537.36",1,None,Chinese_test_tc.csv,None,None,30-02-23,30-02-23,11:03:03,0,0,0,0,0,None,,h52z3fcfr,245193,3.8.1,1,5f74fd83ed11b81620baf105,6425a47a1873710b94079612,641bb2543ae0d27e600659f5,5f74fd83ed11b81620baf105,6425a47a1873710b94079612,641bb2543ae0d27e600659f5,1,m,8055,1040,1920,24,1080,24,-1920,0,1920,None,Win32,None,None,English_test.csv,E
None,0,None,3,Elementary school students don’t have as _______ homework as junior high students do.,None,,Mozilla,Netscape,"5.0 (Windows NT 10.0; Win64; x64) AppleWebKit/537.36 (KHTML, like Gecko) Chrome/111.0.0.0 Safari/537.36",1,None,Chinese_test_tc.csv,None,None,30-02-23,30-02-23,11:03:03,0,0,0,0,0,None,,h52z3fcfr,245193,3.8.1,1,5f74fd83ed11b81620baf105,6425a47a1873710b94079612,641bb2543ae0d27e600659f5,5f74fd83ed11b81620baf105,6425a47a1873710b94079612,641bb2543ae0d27e600659f5,4,m,5542,1040,1920,24,1080,24,-1920,0,1920,None,Win32,None,None,English_test.csv,E
None,0,None,6,Sara was _______ because her grandmother had put more money in her brother’s red <br/>envelope.,None,,Mozilla,Netscape,"5.0 (Windows NT 10.0; Win64; x64) AppleWebKit/537.36 (KHTML, like Gecko) Chrome/111.0.0.0 Safari/537.36",1,None,Chinese_test_tc.csv,None,None,30-02-23,30-02-23,11:03:03,0,0,0,0,0,None,,h52z3fcfr,245193,3.8.1,1,5f74fd83ed11b81620baf105,6425a47a1873710b94079612,641bb2543ae0d27e600659f5,5f74fd83ed11b81620baf105,6425a47a1873710b94079612,641bb2543ae0d27e600659f5,2,m,7467,1040,1920,24,1080,24,-1920,0,1920,None,Win32,None,None,English_test.csv,E
None,2,None,20,______ that something like this would happen to me.,None,,Mozilla,Netscape,"5.0 (Windows NT 10.0; Win64; x64) AppleWebKit/537.36 (KHTML, like Gecko) Chrome/111.0.0.0 Safari/537.36",1,None,Chinese_test_tc.csv,None,None,30-02-23,30-02-23,11:03:03,0,0,0,0,0,None,,h52z3fcfr,245193,3.8.1,1,5f74fd83ed11b81620baf105,6425a47a1873710b94079612,641bb2543ae0d27e600659f5,5f74fd83ed11b81620baf105,6425a47a1873710b94079612,641bb2543ae0d27e600659f5,1,m,10805,1040,1920,24,1080,24,-1920,0,1920,None,Win32,None,None,English_test.csv,E
None,0,None,1,"Both of those horses live on Jack’s farm, but _______ on the left isn’t his.",None,,Mozilla,Netscape,"5.0 (Windows NT 10.0; Win64; x64) AppleWebKit/537.36 (KHTML, like Gecko) Chrome/111.0.0.0 Safari/537.36",1,None,Chinese_test_tc.csv,None,None,30-02-23,30-02-23,11:03:03,0,0,0,0,0,None,,h52z3fcfr,245193,3.8.1,1,5f74fd83ed11b81620baf105,6425a47a1873710b94079612,641bb2543ae0d27e600659f5,5f74fd83ed11b81620baf105,6425a47a1873710b94079612,641bb2543ae0d27e600659f5,4,m,6859,1040,1920,24,1080,24,-1920,0,1920,None,Win32,None,None,English_test.csv,E
None,2,None,17,"To our surprise, Tina was given permission to enter the third grade, although she <br/>______ the previous grade.",None,,Mozilla,Netscape,"5.0 (Windows NT 10.0; Win64; x64) AppleWebKit/537.36 (KHTML, like Gecko) Chrome/111.0.0.0 Safari/537.36",1,None,Chinese_test_tc.csv,None,None,30-02-23,30-02-23,11:03:03,0,0,0,0,0,None,,h52z3fcfr,245193,3.8.1,1,5f74fd83ed11b81620baf105,6425a47a1873710b94079612,641bb2543ae0d27e600659f5,5f74fd83ed11b81620baf105,6425a47a1873710b94079612,641bb2543ae0d27e600659f5,2,m,9025,1040,1920,24,1080,24,-1920,0,1920,None,Win32,None,None,English_test.csv,E
None,0,None,5,"The bus was full, but Judy saw an empty seat next to an old woman.“_______ I sit here?” <br/>she asked her.",None,,Mozilla,Netscape,"5.0 (Windows NT 10.0; Win64; x64) AppleWebKit/537.36 (KHTML, like Gecko) Chrome/111.0.0.0 Safari/537.36",1,None,Chinese_test_tc.csv,None,None,30-02-23,30-02-23,11:03:03,0,0,0,0,0,None,,h52z3fcfr,245193,3.8.1,1,5f74fd83ed11b81620baf105,6425a47a1873710b94079612,641bb2543ae0d27e600659f5,5f74fd83ed11b81620baf105,6425a47a1873710b94079612,641bb2543ae0d27e600659f5,3,m,5667,1040,1920,24,1080,24,-1920,0,1920,None,Win32,None,None,English_test.csv,E
None,1,None,14,"Depending on the _______ he is in, the boss will either thank you for your suggestion <br/>or fire you for criticizing his plan.",None,,Mozilla,Netscape,"5.0 (Windows NT 10.0; Win64; x64) AppleWebKit/537.36 (KHTML, like Gecko) Chrome/111.0.0.0 Safari/537.36",1,None,Chinese_test_tc.csv,None,None,30-02-23,30-02-23,11:03:03,0,0,0,0,0,None,,h52z3fcfr,245193,3.8.1,1,5f74fd83ed11b81620baf105,6425a47a1873710b94079612,641bb2543ae0d27e600659f5,5f74fd83ed11b81620baf105,6425a47a1873710b94079612,641bb2543ae0d27e600659f5,4,m,8121,1040,1920,24,1080,24,-1920,0,1920,None,Win32,None,None,English_test.csv,E
None,0,None,9,Writing letters _______ not as difficult as you think.,None,,Mozilla,Netscape,"5.0 (Windows NT 10.0; Win64; x64) AppleWebKit/537.36 (KHTML, like Gecko) Chrome/111.0.0.0 Safari/537.36",1,None,Chinese_test_tc.csv,None,None,30-02-23,30-02-23,11:03:03,0,0,0,0,0,None,,h52z3fcfr,245193,3.8.1,1,5f74fd83ed11b81620baf105,6425a47a1873710b94079612,641bb2543ae0d27e600659f5,5f74fd83ed11b81620baf105,6425a47a1873710b94079612,641bb2543ae0d27e600659f5,3,m,4545,1040,1920,24,1080,24,-1920,0,1920,None,Win32,None,None,English_test.csv,E
None,1,None,11,Flight 305 _______ depart at 3:30 p.m. but was cancelled because of a mechanical<br/>problem in one of the engines.,None,,Mozilla,Netscape,"5.0 (Windows NT 10.0; Win64; x64) AppleWebKit/537.36 (KHTML, like Gecko) Chrome/111.0.0.0 Safari/537.36",1,None,Chinese_test_tc.csv,None,None,30-02-23,30-02-23,11:03:03,0,0,0,0,0,None,,h52z3fcfr,245193,3.8.1,1,5f74fd83ed11b81620baf105,6425a47a1873710b94079612,641bb2543ae0d27e600659f5,5f74fd83ed11b81620baf105,6425a47a1873710b94079612,641bb2543ae0d27e600659f5,2,m,4394,1040,1920,24,1080,24,-1920,0,1920,None,Win32,None,None,English_test.csv,E
None,2,None,18,Some of Curt Wilder’s books have been widely read ______ others have remained <br/>relatively unknown.,None,,Mozilla,Netscape,"5.0 (Windows NT 10.0; Win64; x64) AppleWebKit/537.36 (KHTML, like Gecko) Chrome/111.0.0.0 Safari/537.36",1,None,Chinese_test_tc.csv,None,None,30-02-23,30-02-23,11:03:03,0,0,0,0,0,None,,h52z3fcfr,245193,3.8.1,1,5f74fd83ed11b81620baf105,6425a47a1873710b94079612,641bb2543ae0d27e600659f5,5f74fd83ed11b81620baf105,6425a47a1873710b94079612,641bb2543ae0d27e600659f5,1,m,8888,1040,1920,24,1080,24,-1920,0,1920,None,Win32,None,None,English_test.csv,E
None,0,None,8,The boys are in school every day until four o’clock in the afternoon. After that they <br/>_______ an hour playing baseball.,None,,Mozilla,Netscape,"5.0 (Windows NT 10.0; Win64; x64) AppleWebKit/537.36 (KHTML, like Gecko) Chrome/111.0.0.0 Safari/537.36",0,None,Chinese_test_tc.csv,None,None,30-02-23,30-02-23,11:03:03,0,0,0,0,0,None,,h52z3fcfr,245193,3.8.1,1,5f74fd83ed11b81620baf105,6425a47a1873710b94079612,641bb2543ae0d27e600659f5,5f74fd83ed11b81620baf105,6425a47a1873710b94079612,641bb2543ae0d27e600659f5,3,m,11968,1040,1920,24,1080,24,-1920,0,1920,None,Win32,None,None,English_test.csv,E
None,2,None,19,The current economic recession is threatening the ______ of many people in the country.,None,,Mozilla,Netscape,"5.0 (Windows NT 10.0; Win64; x64) AppleWebKit/537.36 (KHTML, like Gecko) Chrome/111.0.0.0 Safari/537.36",1,None,Chinese_test_tc.csv,None,None,30-02-23,30-02-23,11:03:03,0,0,0,0,0,None,,h52z3fcfr,245193,3.8.1,1,5f74fd83ed11b81620baf105,6425a47a1873710b94079612,641bb2543ae0d27e600659f5,5f74fd83ed11b81620baf105,6425a47a1873710b94079612,641bb2543ae0d27e600659f5,2,m,7444,1040,1920,24,1080,24,-1920,0,1920,None,Win32,None,None,English_test.csv,E
None,1,None,13,New computer technology has _______ changed the way Hollywood movies are made.,None,,Mozilla,Netscape,"5.0 (Windows NT 10.0; Win64; x64) AppleWebKit/537.36 (KHTML, like Gecko) Chrome/111.0.0.0 Safari/537.36",1,None,Chinese_test_tc.csv,None,None,30-02-23,30-02-23,11:03:03,0,0,0,0,0,None,,h52z3fcfr,245193,3.8.1,1,5f74fd83ed11b81620baf105,6425a47a1873710b94079612,641bb2543ae0d27e600659f5,5f74fd83ed11b81620baf105,6425a47a1873710b94079612,641bb2543ae0d27e600659f5,1,m,3699,1040,1920,24,1080,24,-1920,0,1920,None,Win32,None,None,English_test.csv,E
None,1,None,16,This proposal for a new high speed train _______ because the cost is too high.,None,,Mozilla,Netscape,"5.0 (Windows NT 10.0; Win64; x64) AppleWebKit/537.36 (KHTML, like Gecko) Chrome/111.0.0.0 Safari/537.36",0,None,Chinese_test_tc.csv,None,None,30-02-23,30-02-23,11:03:03,0,0,0,0,0,None,,h52z3fcfr,245193,3.8.1,1,5f74fd83ed11b81620baf105,6425a47a1873710b94079612,641bb2543ae0d27e600659f5,5f74fd83ed11b81620baf105,6425a47a1873710b94079612,641bb2543ae0d27e600659f5,4,m,11904,1040,1920,24,1080,24,-1920,0,1920,None,Win32,None,None,English_test.csv,E
None,1,None,10,Defensive drivers _______ their driving mirrors frequently so that they know at all <br/>times if there are other vehicles or people nearby.,None,,Mozilla,Netscape,"5.0 (Windows NT 10.0; Win64; x64) AppleWebKit/537.36 (KHTML, like Gecko) Chrome/111.0.0.0 Safari/537.36",0,None,Chinese_test_tc.csv,None,None,30-02-23,30-02-23,11:03:03,0,0,0,0,0,None,,h52z3fcfr,245193,3.8.1,1,5f74fd83ed11b81620baf105,6425a47a1873710b94079612,641bb2543ae0d27e600659f5,5f74fd83ed11b81620baf105,6425a47a1873710b94079612,641bb2543ae0d27e600659f5,4,m,15297,1040,1920,24,1080,24,-1920,0,1920,None,Win32,None,None,English_test.csv,E
None,0,None,2,The student raced out of the classroom and bumped _______ a teacher who was carrying <br/>a cup of coffee.,None,,Mozilla,Netscape,"5.0 (Windows NT 10.0; Win64; x64) AppleWebKit/537.36 (KHTML, like Gecko) Chrome/111.0.0.0 Safari/537.36",1,None,Chinese_test_tc.csv,None,None,30-02-23,30-02-23,11:03:03,0,0,0,0,0,None,,h52z3fcfr,245193,3.8.1,1,5f74fd83ed11b81620baf105,6425a47a1873710b94079612,641bb2543ae0d27e600659f5,5f74fd83ed11b81620baf105,6425a47a1873710b94079612,641bb2543ae0d27e600659f5,4,m,4773,1040,1920,24,1080,24,-1920,0,1920,None,Win32,None,None,English_test.csv,E
None,None,None,None,None,None,None,Mozilla,Netscape,"5.0 (Windows NT 10.0; Win64; x64) AppleWebKit/537.36 (KHTML, like Gecko) Chrome/111.0.0.0 Safari/537.36",undefined,None,None,None,None,30-02-23,30-02-23,09:51:25,0,0,0,0,0,None,None,s9h44xbyw,245310,3.8.1,None,6400dfca384752e35f9f2e0b,6425afed4d5ee3a510567cbe,641bb2543ae0d27e600659f5,6400dfca384752e35f9f2e0b,6425afed4d5ee3a510567cbe,641bb2543ae0d27e600659f5,a,m,13094,1040,1920,24,1080,24,0,0,1920,None,Win32,None,None,None,consent
None,None,None,None,請問您的性別？<br/>Your gender?<br/>輸入對應選項的號碼表達您的回答<br>Please select your best option.,None,,Mozilla,Netscape,"5.0 (Windows NT 10.0; Win64; x64) AppleWebKit/537.36 (KHTML, like Gecko) Chrome/111.0.0.0 Safari/537.36",undefined,None,None,None,None,30-02-23,30-02-23,09:51:25,0,0,0,0,0,None,2,s9h44xbyw,245310,3.8.1,,6400dfca384752e35f9f2e0b,6425afed4d5ee3a510567cbe,641bb2543ae0d27e600659f5,6400dfca384752e35f9f2e0b,6425afed4d5ee3a510567cbe,641bb2543ae0d27e600659f5,2,m,18623,1040,1920,24,1080,24,0,0,1920,None,Win32,None,None,None,Pre_survey
None,None,None,None,請問您的性別？<br/>Your gender?<br/>輸入對應選項的號碼表達您的回答<br>Please select your best option.,None,,Mozilla,Netscape,"5.0 (Windows NT 10.0; Win64; x64) AppleWebKit/537.36 (KHTML, like Gecko) Chrome/111.0.0.0 Safari/537.36",undefined,None,None,None,None,30-02-23,30-02-23,09:51:25,0,0,0,0,0,None,2,s9h44xbyw,245310,3.8.1,,6400dfca384752e35f9f2e0b,6425afed4d5ee3a510567cbe,641bb2543ae0d27e600659f5,6400dfca384752e35f9f2e0b,6425afed4d5ee3a510567cbe,641bb2543ae0d27e600659f5,enter,m,7592,1040,1920,24,1080,24,0,0,1920,None,Win32,None,None,None,Pre_survey
None,None,None,None,請輸入您的出生西元年4位數字<br />Your birth year?<br />例如: 出生年月日是 2000/1/1<br />If your birthday is 2000/1/1<br />請輸入: 2000<br />Input: 2000,None,1,Mozilla,Netscape,"5.0 (Windows NT 10.0; Win64; x64) AppleWebKit/537.36 (KHTML, like Gecko) Chrome/111.0.0.0 Safari/537.36",undefined,None,None,None,None,30-02-23,30-02-23,09:51:25,0,0,0,0,0,None,,s9h44xbyw,245310,3.8.1,,6400dfca384752e35f9f2e0b,6425afed4d5ee3a510567cbe,641bb2543ae0d27e600659f5,6400dfca384752e35f9f2e0b,6425afed4d5ee3a510567cbe,641bb2543ae0d27e600659f5,1,m,10696,1040,1920,24,1080,24,0,0,1920,None,Win32,None,None,None,Pre_survey
None,None,None,None,請輸入您的出生西元年4位數字<br />Your birth year?<br />例如: 出生年月日是 2000/1/1<br />If your birthday is 2000/1/1<br />請輸入: 2000<br />Input: 2000,None,19,Mozilla,Netscape,"5.0 (Windows NT 10.0; Win64; x64) AppleWebKit/537.36 (KHTML, like Gecko) Chrome/111.0.0.0 Safari/537.36",undefined,None,None,None,None,30-02-23,30-02-23,09:51:25,0,0,0,0,0,None,,s9h44xbyw,245310,3.8.1,,6400dfca384752e35f9f2e0b,6425afed4d5ee3a510567cbe,641bb2543ae0d27e600659f5,6400dfca384752e35f9f2e0b,6425afed4d5ee3a510567cbe,641bb2543ae0d27e600659f5,9,m,1261,1040,1920,24,1080,24,0,0,1920,None,Win32,None,None,None,Pre_survey
None,None,None,None,請輸入您的出生西元年4位數字<br />Your birth year?<br />例如: 出生年月日是 2000/1/1<br />If your birthday is 2000/1/1<br />請輸入: 2000<br />Input: 2000,None,198,Mozilla,Netscape,"5.0 (Windows NT 10.0; Win64; x64) AppleWebKit/537.36 (KHTML, like Gecko) Chrome/111.0.0.0 Safari/537.36",undefined,None,None,None,None,30-02-23,30-02-23,09:51:25,0,0,0,0,0,None,,s9h44xbyw,245310,3.8.1,,6400dfca384752e35f9f2e0b,6425afed4d5ee3a510567cbe,641bb2543ae0d27e600659f5,6400dfca384752e35f9f2e0b,6425afed4d5ee3a510567cbe,641bb2543ae0d27e600659f5,8,m,305,1040,1920,24,1080,24,0,0,1920,None,Win32,None,None,None,Pre_survey
None,None,None,None,請輸入您的出生西元年4位數字<br />Your birth year?<br />例如: 出生年月日是 2000/1/1<br />If your birthday is 2000/1/1<br />請輸入: 2000<br />Input: 2000,None,1988,Mozilla,Netscape,"5.0 (Windows NT 10.0; Win64; x64) AppleWebKit/537.36 (KHTML, like Gecko) Chrome/111.0.0.0 Safari/537.36",undefined,None,None,None,None,30-02-23,30-02-23,09:51:25,0,0,0,0,0,None,,s9h44xbyw,245310,3.8.1,,6400dfca384752e35f9f2e0b,6425afed4d5ee3a510567cbe,641bb2543ae0d27e600659f5,6400dfca384752e35f9f2e0b,6425afed4d5ee3a510567cbe,641bb2543ae0d27e600659f5,8,m,178,1040,1920,24,1080,24,0,0,1920,None,Win32,None,None,None,Pre_survey
None,None,None,None,請輸入您的出生西元年4位數字<br />Your birth year?<br />例如: 出生年月日是 2000/1/1<br />If your birthday is 2000/1/1<br />請輸入: 2000<br />Input: 2000,None,1988,Mozilla,Netscape,"5.0 (Windows NT 10.0; Win64; x64) AppleWebKit/537.36 (KHTML, like Gecko) Chrome/111.0.0.0 Safari/537.36",undefined,None,None,None,None,30-02-23,30-02-23,09:51:25,0,0,0,0,0,None,,s9h44xbyw,245310,3.8.1,,6400dfca384752e35f9f2e0b,6425afed4d5ee3a510567cbe,641bb2543ae0d27e600659f5,6400dfca384752e35f9f2e0b,6425afed4d5ee3a510567cbe,641bb2543ae0d27e600659f5,enter,m,2389,1040,1920,24,1080,24,0,0,1920,None,Win32,None,None,None,Pre_survey
None,None,None,None,請問你的母語是中文還是英文？<br/>Which is your native language? English or Chinese?<br/>輸入對應選項的號碼表達您的回答<br>Please select your best option.,None,,Mozilla,Netscape,"5.0 (Windows NT 10.0; Win64; x64) AppleWebKit/537.36 (KHTML, like Gecko) Chrome/111.0.0.0 Safari/537.36",undefined,None,None,None,None,30-02-23,30-02-23,09:51:25,0,0,0,0,0,None,,s9h44xbyw,245310,3.8.1,1,6400dfca384752e35f9f2e0b,6425afed4d5ee3a510567cbe,641bb2543ae0d27e600659f5,6400dfca384752e35f9f2e0b,6425afed4d5ee3a510567cbe,641bb2543ae0d27e600659f5,1,m,4203,1040,1920,24,1080,24,0,0,1920,None,Win32,None,None,None,Pre_survey
None,None,None,None,請問你的母語是中文還是英文？<br/>Which is your native language? English or Chinese?<br/>輸入對應選項的號碼表達您的回答<br>Please select your best option.,None,,Mozilla,Netscape,"5.0 (Windows NT 10.0; Win64; x64) AppleWebKit/537.36 (KHTML, like Gecko) Chrome/111.0.0.0 Safari/537.36",undefined,None,None,None,None,30-02-23,30-02-23,09:51:25,0,0,0,0,0,None,,s9h44xbyw,245310,3.8.1,1,6400dfca384752e35f9f2e0b,6425afed4d5ee3a510567cbe,641bb2543ae0d27e600659f5,6400dfca384752e35f9f2e0b,6425afed4d5ee3a510567cbe,641bb2543ae0d27e600659f5,enter,m,3854,1040,1920,24,1080,24,0,0,1920,None,Win32,None,None,None,Pre_survey
None,0,None,6,Sara was _______ because her grandmother had put more money in her brother’s red <br/>envelope.,None,,Mozilla,Netscape,"5.0 (Windows NT 10.0; Win64; x64) AppleWebKit/537.36 (KHTML, like Gecko) Chrome/111.0.0.0 Safari/537.36",1,None,Chinese_test_tc.csv,None,None,30-02-23,30-02-23,09:51:25,0,0,0,0,0,None,,s9h44xbyw,245310,3.8.1,1,6400dfca384752e35f9f2e0b,6425afed4d5ee3a510567cbe,641bb2543ae0d27e600659f5,6400dfca384752e35f9f2e0b,6425afed4d5ee3a510567cbe,641bb2543ae0d27e600659f5,3,m,10456,1040,1920,24,1080,24,0,0,1920,None,Win32,None,None,English_test.csv,E
None,1,None,13,New computer technology has _______ changed the way Hollywood movies are made.,None,,Mozilla,Netscape,"5.0 (Windows NT 10.0; Win64; x64) AppleWebKit/537.36 (KHTML, like Gecko) Chrome/111.0.0.0 Safari/537.36",1,None,Chinese_test_tc.csv,None,None,30-02-23,30-02-23,09:51:25,0,0,0,0,0,None,,s9h44xbyw,245310,3.8.1,1,6400dfca384752e35f9f2e0b,6425afed4d5ee3a510567cbe,641bb2543ae0d27e600659f5,6400dfca384752e35f9f2e0b,6425afed4d5ee3a510567cbe,641bb2543ae0d27e600659f5,4,m,9048,1040,1920,24,1080,24,0,0,1920,None,Win32,None,None,English_test.csv,E
None,2,None,20,______ that something like this would happen to me.,None,,Mozilla,Netscape,"5.0 (Windows NT 10.0; Win64; x64) AppleWebKit/537.36 (KHTML, like Gecko) Chrome/111.0.0.0 Safari/537.36",1,None,Chinese_test_tc.csv,None,None,30-02-23,30-02-23,09:51:25,0,0,0,0,0,None,,s9h44xbyw,245310,3.8.1,1,6400dfca384752e35f9f2e0b,6425afed4d5ee3a510567cbe,641bb2543ae0d27e600659f5,6400dfca384752e35f9f2e0b,6425afed4d5ee3a510567cbe,641bb2543ae0d27e600659f5,4,m,16674,1040,1920,24,1080,24,0,0,1920,None,Win32,None,None,English_test.csv,E
None,1,None,16,This proposal for a new high speed train _______ because the cost is too high.,None,,Mozilla,Netscape,"5.0 (Windows NT 10.0; Win64; x64) AppleWebKit/537.36 (KHTML, like Gecko) Chrome/111.0.0.0 Safari/537.36",0,None,Chinese_test_tc.csv,None,None,30-02-23,30-02-23,09:51:25,0,0,0,0,0,None,,s9h44xbyw,245310,3.8.1,1,6400dfca384752e35f9f2e0b,6425afed4d5ee3a510567cbe,641bb2543ae0d27e600659f5,6400dfca384752e35f9f2e0b,6425afed4d5ee3a510567cbe,641bb2543ae0d27e600659f5,3,m,9757,1040,1920,24,1080,24,0,0,1920,None,Win32,None,None,English_test.csv,E
None,1,None,12,"_______ newspaper reports, flooding in the area near the river due to the storm has <br/>been much more serious than expected.",None,,Mozilla,Netscape,"5.0 (Windows NT 10.0; Win64; x64) AppleWebKit/537.36 (KHTML, like Gecko) Chrome/111.0.0.0 Safari/537.36",1,None,Chinese_test_tc.csv,None,None,30-02-23,30-02-23,09:51:25,0,0,0,0,0,None,,s9h44xbyw,245310,3.8.1,1,6400dfca384752e35f9f2e0b,6425afed4d5ee3a510567cbe,641bb2543ae0d27e600659f5,6400dfca384752e35f9f2e0b,6425afed4d5ee3a510567cbe,641bb2543ae0d27e600659f5,2,m,17831,1040,1920,24,1080,24,0,0,1920,None,Win32,None,None,English_test.csv,E
None,2,None,19,The current economic recession is threatening the ______ of many people in the country.,None,,Mozilla,Netscape,"5.0 (Windows NT 10.0; Win64; x64) AppleWebKit/537.36 (KHTML, like Gecko) Chrome/111.0.0.0 Safari/537.36",1,None,Chinese_test_tc.csv,None,None,30-02-23,30-02-23,09:51:25,0,0,0,0,0,None,,s9h44xbyw,245310,3.8.1,1,6400dfca384752e35f9f2e0b,6425afed4d5ee3a510567cbe,641bb2543ae0d27e600659f5,6400dfca384752e35f9f2e0b,6425afed4d5ee3a510567cbe,641bb2543ae0d27e600659f5,1,m,15459,1040,1920,24,1080,24,0,0,1920,None,Win32,None,None,English_test.csv,E
None,0,None,9,Writing letters _______ not as difficult as you think.,None,,Mozilla,Netscape,"5.0 (Windows NT 10.0; Win64; x64) AppleWebKit/537.36 (KHTML, like Gecko) Chrome/111.0.0.0 Safari/537.36",1,None,Chinese_test_tc.csv,None,None,30-02-23,30-02-23,09:51:25,0,0,0,0,0,None,,s9h44xbyw,245310,3.8.1,1,6400dfca384752e35f9f2e0b,6425afed4d5ee3a510567cbe,641bb2543ae0d27e600659f5,6400dfca384752e35f9f2e0b,6425afed4d5ee3a510567cbe,641bb2543ae0d27e600659f5,1,m,7095,1040,1920,24,1080,24,0,0,1920,None,Win32,None,None,English_test.csv,E
None,1,None,14,"Depending on the _______ he is in, the boss will either thank you for your suggestion <br/>or fire you for criticizing his plan.",None,,Mozilla,Netscape,"5.0 (Windows NT 10.0; Win64; x64) AppleWebKit/537.36 (KHTML, like Gecko) Chrome/111.0.0.0 Safari/537.36",1,None,Chinese_test_tc.csv,None,None,30-02-23,30-02-23,09:51:25,0,0,0,0,0,None,,s9h44xbyw,245310,3.8.1,1,6400dfca384752e35f9f2e0b,6425afed4d5ee3a510567cbe,641bb2543ae0d27e600659f5,6400dfca384752e35f9f2e0b,6425afed4d5ee3a510567cbe,641bb2543ae0d27e600659f5,4,m,21759,1040,1920,24,1080,24,0,0,1920,None,Win32,None,None,English_test.csv,E
None,2,None,18,Some of Curt Wilder’s books have been widely read ______ others have remained <br/>relatively unknown.,None,,Mozilla,Netscape,"5.0 (Windows NT 10.0; Win64; x64) AppleWebKit/537.36 (KHTML, like Gecko) Chrome/111.0.0.0 Safari/537.36",1,None,Chinese_test_tc.csv,None,None,30-02-23,30-02-23,09:51:25,0,0,0,0,0,None,,s9h44xbyw,245310,3.8.1,1,6400dfca384752e35f9f2e0b,6425afed4d5ee3a510567cbe,641bb2543ae0d27e600659f5,6400dfca384752e35f9f2e0b,6425afed4d5ee3a510567cbe,641bb2543ae0d27e600659f5,2,m,12482,1040,1920,24,1080,24,0,0,1920,None,Win32,None,None,English_test.csv,E
None,0,None,3,Elementary school students don’t have as _______ homework as junior high students do.,None,,Mozilla,Netscape,"5.0 (Windows NT 10.0; Win64; x64) AppleWebKit/537.36 (KHTML, like Gecko) Chrome/111.0.0.0 Safari/537.36",1,None,Chinese_test_tc.csv,None,None,30-02-23,30-02-23,09:51:25,0,0,0,0,0,None,,s9h44xbyw,245310,3.8.1,1,6400dfca384752e35f9f2e0b,6425afed4d5ee3a510567cbe,641bb2543ae0d27e600659f5,6400dfca384752e35f9f2e0b,6425afed4d5ee3a510567cbe,641bb2543ae0d27e600659f5,4,m,7303,1040,1920,24,1080,24,0,0,1920,None,Win32,None,None,English_test.csv,E
None,1,None,10,Defensive drivers _______ their driving mirrors frequently so that they know at all <br/>times if there are other vehicles or people nearby.,None,,Mozilla,Netscape,"5.0 (Windows NT 10.0; Win64; x64) AppleWebKit/537.36 (KHTML, like Gecko) Chrome/111.0.0.0 Safari/537.36",0,None,Chinese_test_tc.csv,None,None,30-02-23,30-02-23,09:51:25,0,0,0,0,0,None,,s9h44xbyw,245310,3.8.1,1,6400dfca384752e35f9f2e0b,6425afed4d5ee3a510567cbe,641bb2543ae0d27e600659f5,6400dfca384752e35f9f2e0b,6425afed4d5ee3a510567cbe,641bb2543ae0d27e600659f5,3,m,17303,1040,1920,24,1080,24,0,0,1920,None,Win32,None,None,English_test.csv,E
None,1,None,11,Flight 305 _______ depart at 3:30 p.m. but was cancelled because of a mechanical<br/>problem in one of the engines.,None,,Mozilla,Netscape,"5.0 (Windows NT 10.0; Win64; x64) AppleWebKit/537.36 (KHTML, like Gecko) Chrome/111.0.0.0 Safari/537.36",1,None,Chinese_test_tc.csv,None,None,30-02-23,30-02-23,09:51:25,0,0,0,0,0,None,,s9h44xbyw,245310,3.8.1,1,6400dfca384752e35f9f2e0b,6425afed4d5ee3a510567cbe,641bb2543ae0d27e600659f5,6400dfca384752e35f9f2e0b,6425afed4d5ee3a510567cbe,641bb2543ae0d27e600659f5,4,m,11879,1040,1920,24,1080,24,0,0,1920,None,Win32,None,None,English_test.csv,E
None,0,None,7,Please separate your garbage and _______ it in the appropriate containers.,None,,Mozilla,Netscape,"5.0 (Windows NT 10.0; Win64; x64) AppleWebKit/537.36 (KHTML, like Gecko) Chrome/111.0.0.0 Safari/537.36",1,None,Chinese_test_tc.csv,None,None,30-02-23,30-02-23,09:51:25,0,0,0,0,0,None,,s9h44xbyw,245310,3.8.1,1,6400dfca384752e35f9f2e0b,6425afed4d5ee3a510567cbe,641bb2543ae0d27e600659f5,6400dfca384752e35f9f2e0b,6425afed4d5ee3a510567cbe,641bb2543ae0d27e600659f5,2,m,9500,1040,1920,24,1080,24,0,0,1920,None,Win32,None,None,English_test.csv,E
None,0,None,5,"The bus was full, but Judy saw an empty seat next to an old woman.“_______ I sit here?” <br/>she asked her.",None,,Mozilla,Netscape,"5.0 (Windows NT 10.0; Win64; x64) AppleWebKit/537.36 (KHTML, like Gecko) Chrome/111.0.0.0 Safari/537.36",1,None,Chinese_test_tc.csv,None,None,30-02-23,30-02-23,09:51:25,0,0,0,0,0,None,,s9h44xbyw,245310,3.8.1,1,6400dfca384752e35f9f2e0b,6425afed4d5ee3a510567cbe,641bb2543ae0d27e600659f5,6400dfca384752e35f9f2e0b,6425afed4d5ee3a510567cbe,641bb2543ae0d27e600659f5,3,m,10755,1040,1920,24,1080,24,0,0,1920,None,Win32,None,None,English_test.csv,E
None,0,None,4,"Mom, Johnny’s mother doesn’t have enough chairs for her dinner guests.She wants to <br/>borrow one of _______.",None,,Mozilla,Netscape,"5.0 (Windows NT 10.0; Win64; x64) AppleWebKit/537.36 (KHTML, like Gecko) Chrome/111.0.0.0 Safari/537.36",1,None,Chinese_test_tc.csv,None,None,30-02-23,30-02-23,09:51:25,0,0,0,0,0,None,,s9h44xbyw,245310,3.8.1,1,6400dfca384752e35f9f2e0b,6425afed4d5ee3a510567cbe,641bb2543ae0d27e600659f5,6400dfca384752e35f9f2e0b,6425afed4d5ee3a510567cbe,641bb2543ae0d27e600659f5,4,m,35711,1040,1920,24,1080,24,0,0,1920,None,Win32,None,None,English_test.csv,E
None,1,None,15,_______ many desirable qualities which make it a commercially very useful metal.,None,,Mozilla,Netscape,"5.0 (Windows NT 10.0; Win64; x64) AppleWebKit/537.36 (KHTML, like Gecko) Chrome/111.0.0.0 Safari/537.36",1,None,Chinese_test_tc.csv,None,None,30-02-23,30-02-23,09:51:25,0,0,0,0,0,None,,s9h44xbyw,245310,3.8.1,1,6400dfca384752e35f9f2e0b,6425afed4d5ee3a510567cbe,641bb2543ae0d27e600659f5,6400dfca384752e35f9f2e0b,6425afed4d5ee3a510567cbe,641bb2543ae0d27e600659f5,2,m,11863,1040,1920,24,1080,24,0,0,1920,None,Win32,None,None,English_test.csv,E
None,0,None,2,The student raced out of the classroom and bumped _______ a teacher who was carrying <br/>a cup of coffee.,None,,Mozilla,Netscape,"5.0 (Windows NT 10.0; Win64; x64) AppleWebKit/537.36 (KHTML, like Gecko) Chrome/111.0.0.0 Safari/537.36",1,None,Chinese_test_tc.csv,None,None,30-02-23,30-02-23,09:51:25,0,0,0,0,0,None,,s9h44xbyw,245310,3.8.1,1,6400dfca384752e35f9f2e0b,6425afed4d5ee3a510567cbe,641bb2543ae0d27e600659f5,6400dfca384752e35f9f2e0b,6425afed4d5ee3a510567cbe,641bb2543ae0d27e600659f5,3,m,10924,1040,1920,24,1080,24,0,0,1920,None,Win32,None,None,English_test.csv,E
None,0,None,1,"Both of those horses live on Jack’s farm, but _______ on the left isn’t his.",None,,Mozilla,Netscape,"5.0 (Windows NT 10.0; Win64; x64) AppleWebKit/537.36 (KHTML, like Gecko) Chrome/111.0.0.0 Safari/537.36",1,None,Chinese_test_tc.csv,None,None,30-02-23,30-02-23,09:51:25,0,0,0,0,0,None,,s9h44xbyw,245310,3.8.1,1,6400dfca384752e35f9f2e0b,6425afed4d5ee3a510567cbe,641bb2543ae0d27e600659f5,6400dfca384752e35f9f2e0b,6425afed4d5ee3a510567cbe,641bb2543ae0d27e600659f5,4,m,9706,1040,1920,24,1080,24,0,0,1920,None,Win32,None,None,English_test.csv,E
None,2,None,17,"To our surprise, Tina was given permission to enter the third grade, although she <br/>______ the previous grade.",None,,Mozilla,Netscape,"5.0 (Windows NT 10.0; Win64; x64) AppleWebKit/537.36 (KHTML, like Gecko) Chrome/111.0.0.0 Safari/537.36",1,None,Chinese_test_tc.csv,None,None,30-02-23,30-02-23,09:51:25,0,0,0,0,0,None,,s9h44xbyw,245310,3.8.1,1,6400dfca384752e35f9f2e0b,6425afed4d5ee3a510567cbe,641bb2543ae0d27e600659f5,6400dfca384752e35f9f2e0b,6425afed4d5ee3a510567cbe,641bb2543ae0d27e600659f5,1,m,16639,1040,1920,24,1080,24,0,0,1920,None,Win32,None,None,English_test.csv,E
None,0,None,8,The boys are in school every day until four o’clock in the afternoon. After that they <br/>_______ an hour playing baseball.,None,,Mozilla,Netscape,"5.0 (Windows NT 10.0; Win64; x64) AppleWebKit/537.36 (KHTML, like Gecko) Chrome/111.0.0.0 Safari/537.36",1,None,Chinese_test_tc.csv,None,None,30-02-23,30-02-23,09:51:25,0,0,0,0,0,None,,s9h44xbyw,245310,3.8.1,1,6400dfca384752e35f9f2e0b,6425afed4d5ee3a510567cbe,641bb2543ae0d27e600659f5,6400dfca384752e35f9f2e0b,6425afed4d5ee3a510567cbe,641bb2543ae0d27e600659f5,4,m,11595,1040,1920,24,1080,24,0,0,1920,None,Win32,None,None,English_test.csv,E
None,2,None,18,下列「 」中的詞語，何組前後意義相同？,None,,Mozilla,Netscape,"5.0 (Windows NT 10.0; Win64; x64) AppleWebKit/537.36 (KHTML, like Gecko) Chrome/111.0.0.0 Safari/537.36",1,None,Chinese_test_tc.csv,None,None,30-02-23,30-02-23,09:51:25,0,0,0,0,0,None,,s9h44xbyw,245310,3.8.1,1,6400dfca384752e35f9f2e0b,6425afed4d5ee3a510567cbe,641bb2543ae0d27e600659f5,6400dfca384752e35f9f2e0b,6425afed4d5ee3a510567cbe,641bb2543ae0d27e600659f5,1,m,54529,1040,1920,24,1080,24,0,0,1920,None,Win32,None,None,Chinese_test_tc.csv,C
None,1,None,10,下列文句「 」中的詞語，何者可以用（ ）的詞語替代？,None,,Mozilla,Netscape,"5.0 (Windows NT 10.0; Win64; x64) AppleWebKit/537.36 (KHTML, like Gecko) Chrome/111.0.0.0 Safari/537.36",1,None,Chinese_test_tc.csv,None,None,30-02-23,30-02-23,09:51:25,0,0,0,0,0,None,,s9h44xbyw,245310,3.8.1,1,6400dfca384752e35f9f2e0b,6425afed4d5ee3a510567cbe,641bb2543ae0d27e600659f5,6400dfca384752e35f9f2e0b,6425afed4d5ee3a510567cbe,641bb2543ae0d27e600659f5,1,m,24350,1040,1920,24,1080,24,0,0,1920,None,Win32,None,None,Chinese_test_tc.csv,C
None,1,None,13,下列哪一選項前後兩句的意思相同？,None,,Mozilla,Netscape,"5.0 (Windows NT 10.0; Win64; x64) AppleWebKit/537.36 (KHTML, like Gecko) Chrome/111.0.0.0 Safari/537.36",1,None,Chinese_test_tc.csv,None,None,30-02-23,30-02-23,09:51:25,0,0,0,0,0,None,,s9h44xbyw,245310,3.8.1,1,6400dfca384752e35f9f2e0b,6425afed4d5ee3a510567cbe,641bb2543ae0d27e600659f5,6400dfca384752e35f9f2e0b,6425afed4d5ee3a510567cbe,641bb2543ae0d27e600659f5,4,m,14567,1040,1920,24,1080,24,0,0,1920,None,Win32,None,None,Chinese_test_tc.csv,C
None,1,None,11,下列各組句子的意思，何者可以用來說明友誼的重要？,None,,Mozilla,Netscape,"5.0 (Windows NT 10.0; Win64; x64) AppleWebKit/537.36 (KHTML, like Gecko) Chrome/111.0.0.0 Safari/537.36",1,None,Chinese_test_tc.csv,None,None,30-02-23,30-02-23,09:51:25,0,0,0,0,0,None,,s9h44xbyw,245310,3.8.1,1,6400dfca384752e35f9f2e0b,6425afed4d5ee3a510567cbe,641bb2543ae0d27e600659f5,6400dfca384752e35f9f2e0b,6425afed4d5ee3a510567cbe,641bb2543ae0d27e600659f5,4,m,15922,1040,1920,24,1080,24,0,0,1920,None,Win32,None,None,Chinese_test_tc.csv,C
None,0,None,7,「_確定出遊日期，眾人_七嘴八舌的開始討論細節。」<br/>_中的連接詞最適合填入下列 哪一組？,None,,Mozilla,Netscape,"5.0 (Windows NT 10.0; Win64; x64) AppleWebKit/537.36 (KHTML, like Gecko) Chrome/111.0.0.0 Safari/537.36",1,None,Chinese_test_tc.csv,None,None,30-02-23,30-02-23,09:51:25,0,0,0,0,0,None,,s9h44xbyw,245310,3.8.1,1,6400dfca384752e35f9f2e0b,6425afed4d5ee3a510567cbe,641bb2543ae0d27e600659f5,6400dfca384752e35f9f2e0b,6425afed4d5ee3a510567cbe,641bb2543ae0d27e600659f5,4,m,29919,1040,1920,24,1080,24,0,0,1920,None,Win32,None,None,Chinese_test_tc.csv,C
None,0,None,5,下列連接詞，何者使用最適切？,None,,Mozilla,Netscape,"5.0 (Windows NT 10.0; Win64; x64) AppleWebKit/537.36 (KHTML, like Gecko) Chrome/111.0.0.0 Safari/537.36",0,None,Chinese_test_tc.csv,None,None,30-02-23,30-02-23,09:51:25,0,0,0,0,0,None,,s9h44xbyw,245310,3.8.1,1,6400dfca384752e35f9f2e0b,6425afed4d5ee3a510567cbe,641bb2543ae0d27e600659f5,6400dfca384752e35f9f2e0b,6425afed4d5ee3a510567cbe,641bb2543ae0d27e600659f5,4,m,18913,1040,1920,24,1080,24,0,0,1920,None,Win32,None,None,Chinese_test_tc.csv,C
None,0,None,3,「當哥哥寫完功課時，媽媽說：_________」<br/>下面四個選項中的哪句話，最不可能是媽媽的說話內容？,None,,Mozilla,Netscape,"5.0 (Windows NT 10.0; Win64; x64) AppleWebKit/537.36 (KHTML, like Gecko) Chrome/111.0.0.0 Safari/537.36",1,None,Chinese_test_tc.csv,None,None,30-02-23,30-02-23,09:51:25,0,0,0,0,0,None,,s9h44xbyw,245310,3.8.1,1,6400dfca384752e35f9f2e0b,6425afed4d5ee3a510567cbe,641bb2543ae0d27e600659f5,6400dfca384752e35f9f2e0b,6425afed4d5ee3a510567cbe,641bb2543ae0d27e600659f5,2,m,13855,1040,1920,24,1080,24,0,0,1920,None,Win32,None,None,Chinese_test_tc.csv,C
None,2,None,19,下列「 」中的詞語，何者可以用後者代換，而不影響詞義？,None,,Mozilla,Netscape,"5.0 (Windows NT 10.0; Win64; x64) AppleWebKit/537.36 (KHTML, like Gecko) Chrome/111.0.0.0 Safari/537.36",0,None,Chinese_test_tc.csv,None,None,30-02-23,30-02-23,09:51:25,0,0,0,0,0,None,,s9h44xbyw,245310,3.8.1,1,6400dfca384752e35f9f2e0b,6425afed4d5ee3a510567cbe,641bb2543ae0d27e600659f5,6400dfca384752e35f9f2e0b,6425afed4d5ee3a510567cbe,641bb2543ae0d27e600659f5,3,m,42517,1040,1920,24,1080,24,0,0,1920,None,Win32,None,None,Chinese_test_tc.csv,C
None,0,None,4,阿英對小華說：「每次出事你都不自己想辦法解決，這次我決定不幫你了！」<br/>從阿英的話中可以推論：,None,,Mozilla,Netscape,"5.0 (Windows NT 10.0; Win64; x64) AppleWebKit/537.36 (KHTML, like Gecko) Chrome/111.0.0.0 Safari/537.36",1,None,Chinese_test_tc.csv,None,None,30-02-23,30-02-23,09:51:25,0,0,0,0,0,None,,s9h44xbyw,245310,3.8.1,1,6400dfca384752e35f9f2e0b,6425afed4d5ee3a510567cbe,641bb2543ae0d27e600659f5,6400dfca384752e35f9f2e0b,6425afed4d5ee3a510567cbe,641bb2543ae0d27e600659f5,1,m,16430,1040,1920,24,1080,24,0,0,1920,None,Win32,None,None,Chinese_test_tc.csv,C
None,0,None,1,下列各組「 」內詞語意義，何者前後相同？,None,,Mozilla,Netscape,"5.0 (Windows NT 10.0; Win64; x64) AppleWebKit/537.36 (KHTML, like Gecko) Chrome/111.0.0.0 Safari/537.36",1,None,Chinese_test_tc.csv,None,None,30-02-23,30-02-23,09:51:25,0,0,0,0,0,None,,s9h44xbyw,245310,3.8.1,1,6400dfca384752e35f9f2e0b,6425afed4d5ee3a510567cbe,641bb2543ae0d27e600659f5,6400dfca384752e35f9f2e0b,6425afed4d5ee3a510567cbe,641bb2543ae0d27e600659f5,4,m,18131,1040,1920,24,1080,24,0,0,1920,None,Win32,None,None,Chinese_test_tc.csv,C
None,0,None,2,下列句子中，何者「 」中的詞語意思是相同的？,None,,Mozilla,Netscape,"5.0 (Windows NT 10.0; Win64; x64) AppleWebKit/537.36 (KHTML, like Gecko) Chrome/111.0.0.0 Safari/537.36",1,None,Chinese_test_tc.csv,None,None,30-02-23,30-02-23,09:51:25,0,0,0,0,0,None,,s9h44xbyw,245310,3.8.1,1,6400dfca384752e35f9f2e0b,6425afed4d5ee3a510567cbe,641bb2543ae0d27e600659f5,6400dfca384752e35f9f2e0b,6425afed4d5ee3a510567cbe,641bb2543ae0d27e600659f5,3,m,12469,1040,1920,24,1080,24,0,0,1920,None,Win32,None,None,Chinese_test_tc.csv,C
None,2,None,20,下列文句「 」中的量詞，何者使用是適當的？,None,,Mozilla,Netscape,"5.0 (Windows NT 10.0; Win64; x64) AppleWebKit/537.36 (KHTML, like Gecko) Chrome/111.0.0.0 Safari/537.36",1,None,Chinese_test_tc.csv,None,None,30-02-23,30-02-23,09:51:25,0,0,0,0,0,None,,s9h44xbyw,245310,3.8.1,1,6400dfca384752e35f9f2e0b,6425afed4d5ee3a510567cbe,641bb2543ae0d27e600659f5,6400dfca384752e35f9f2e0b,6425afed4d5ee3a510567cbe,641bb2543ae0d27e600659f5,4,m,11906,1040,1920,24,1080,24,0,0,1920,None,Win32,None,None,Chinese_test_tc.csv,C
None,2,None,17,「攪拌原料時，興奮地思考著等下要怎麼去裝飾；放進烤箱後小心翼翼地__，<br/> 深怕一個疏忽就焦黑；出爐那一刻__空間的__香氣，令人不禁想要偷吃。<br/>本書就是要__您進入烘烤點心這麼一個令人幸福的甜美世界。」<br/>上述文__ 處，最適合填入下列哪一組語詞？,None,,Mozilla,Netscape,"5.0 (Windows NT 10.0; Win64; x64) AppleWebKit/537.36 (KHTML, like Gecko) Chrome/111.0.0.0 Safari/537.36",1,None,Chinese_test_tc.csv,None,None,30-02-23,30-02-23,09:51:25,0,0,0,0,0,None,,s9h44xbyw,245310,3.8.1,1,6400dfca384752e35f9f2e0b,6425afed4d5ee3a510567cbe,641bb2543ae0d27e600659f5,6400dfca384752e35f9f2e0b,6425afed4d5ee3a510567cbe,641bb2543ae0d27e600659f5,1,m,43601,1040,1920,24,1080,24,0,0,1920,None,Win32,None,None,Chinese_test_tc.csv,C
None,1,None,12,下列「 」中的語詞，何者意思前後相同？,None,,Mozilla,Netscape,"5.0 (Windows NT 10.0; Win64; x64) AppleWebKit/537.36 (KHTML, like Gecko) Chrome/111.0.0.0 Safari/537.36",1,None,Chinese_test_tc.csv,None,None,30-02-23,30-02-23,09:51:25,0,0,0,0,0,None,,s9h44xbyw,245310,3.8.1,1,6400dfca384752e35f9f2e0b,6425afed4d5ee3a510567cbe,641bb2543ae0d27e600659f5,6400dfca384752e35f9f2e0b,6425afed4d5ee3a510567cbe,641bb2543ae0d27e600659f5,4,m,18695,1040,1920,24,1080,24,0,0,1920,None,Win32,None,None,Chinese_test_tc.csv,C
None,0,None,9,下列哪個句子中的「決定」是動詞？,None,,Mozilla,Netscape,"5.0 (Windows NT 10.0; Win64; x64) AppleWebKit/537.36 (KHTML, like Gecko) Chrome/111.0.0.0 Safari/537.36",1,None,Chinese_test_tc.csv,None,None,30-02-23,30-02-23,09:51:25,0,0,0,0,0,None,,s9h44xbyw,245310,3.8.1,1,6400dfca384752e35f9f2e0b,6425afed4d5ee3a510567cbe,641bb2543ae0d27e600659f5,6400dfca384752e35f9f2e0b,6425afed4d5ee3a510567cbe,641bb2543ae0d27e600659f5,2,m,9587,1040,1920,24,1080,24,0,0,1920,None,Win32,None,None,Chinese_test_tc.csv,C
None,0,None,6,以下句子，何者連接詞使用完全正確？,None,,Mozilla,Netscape,"5.0 (Windows NT 10.0; Win64; x64) AppleWebKit/537.36 (KHTML, like Gecko) Chrome/111.0.0.0 Safari/537.36",1,None,Chinese_test_tc.csv,None,None,30-02-23,30-02-23,09:51:25,0,0,0,0,0,None,,s9h44xbyw,245310,3.8.1,1,6400dfca384752e35f9f2e0b,6425afed4d5ee3a510567cbe,641bb2543ae0d27e600659f5,6400dfca384752e35f9f2e0b,6425afed4d5ee3a510567cbe,641bb2543ae0d27e600659f5,2,m,13840,1040,1920,24,1080,24,0,0,1920,None,Win32,None,None,Chinese_test_tc.csv,C
None,1,None,16,下列選項「 」中的詞語，何者前後的詞性及詞義相同？,None,,Mozilla,Netscape,"5.0 (Windows NT 10.0; Win64; x64) AppleWebKit/537.36 (KHTML, like Gecko) Chrome/111.0.0.0 Safari/537.36",1,None,Chinese_test_tc.csv,None,None,30-02-23,30-02-23,09:51:25,0,0,0,0,0,None,,s9h44xbyw,245310,3.8.1,1,6400dfca384752e35f9f2e0b,6425afed4d5ee3a510567cbe,641bb2543ae0d27e600659f5,6400dfca384752e35f9f2e0b,6425afed4d5ee3a510567cbe,641bb2543ae0d27e600659f5,4,m,19383,1040,1920,24,1080,24,0,0,1920,None,Win32,None,None,Chinese_test_tc.csv,C
None,1,None,14,「參加運動競賽，__有光明的失敗，__要不榮譽的成功。」<br/>__中要填上下列哪一 組的連接詞最適切？,None,,Mozilla,Netscape,"5.0 (Windows NT 10.0; Win64; x64) AppleWebKit/537.36 (KHTML, like Gecko) Chrome/111.0.0.0 Safari/537.36",1,None,Chinese_test_tc.csv,None,None,30-02-23,30-02-23,09:51:25,0,0,0,0,0,None,,s9h44xbyw,245310,3.8.1,1,6400dfca384752e35f9f2e0b,6425afed4d5ee3a510567cbe,641bb2543ae0d27e600659f5,6400dfca384752e35f9f2e0b,6425afed4d5ee3a510567cbe,641bb2543ae0d27e600659f5,1,m,8909,1040,1920,24,1080,24,0,0,1920,None,Win32,None,None,Chinese_test_tc.csv,C
None,0,None,8,我絕對不是這個「意思」，你不要誤會。<br/>上句「 」中的詞語意思和下面哪一個相同？,None,,Mozilla,Netscape,"5.0 (Windows NT 10.0; Win64; x64) AppleWebKit/537.36 (KHTML, like Gecko) Chrome/111.0.0.0 Safari/537.36",1,None,Chinese_test_tc.csv,None,None,30-02-23,30-02-23,09:51:25,0,0,0,0,0,None,,s9h44xbyw,245310,3.8.1,1,6400dfca384752e35f9f2e0b,6425afed4d5ee3a510567cbe,641bb2543ae0d27e600659f5,6400dfca384752e35f9f2e0b,6425afed4d5ee3a510567cbe,641bb2543ae0d27e600659f5,1,m,21491,1040,1920,24,1080,24,0,0,1920,None,Win32,None,None,Chinese_test_tc.csv,C
None,1,None,15,以下句子，何者連接詞使用完全正確？,None,,Mozilla,Netscape,"5.0 (Windows NT 10.0; Win64; x64) AppleWebKit/537.36 (KHTML, like Gecko) Chrome/111.0.0.0 Safari/537.36",1,None,Chinese_test_tc.csv,None,None,30-02-23,30-02-23,09:51:25,0,0,0,0,0,None,,s9h44xbyw,245310,3.8.1,1,6400dfca384752e35f9f2e0b,6425afed4d5ee3a510567cbe,641bb2543ae0d27e600659f5,6400dfca384752e35f9f2e0b,6425afed4d5ee3a510567cbe,641bb2543ae0d27e600659f5,3,m,12572,1040,1920,24,1080,24,0,0,1920,None,Win32,None,None,Chinese_test_tc.csv,C
None,None,None,None,None,None,None,Mozilla,Netscape,5.0 (Windows),undefined,None,None,None,None,31-02-23,01-03-23,23:04:10,0,0,0,0,0,None,None,own10tuxu,246177,3.8.1,None,5d17ce93ac37cd0019535088,6427c94388f25565aec7a7e3,641bb2543ae0d27e600659f5,5d17ce93ac37cd0019535088,6427c94388f25565aec7a7e3,641bb2543ae0d27e600659f5,a,z,3017,1040,1920,24,1080,24,-8,-8,1920,None,Win32,None,None,None,consent
None,None,None,None,請問您的性別？<br/>Your gender?<br/>輸入對應選項的號碼表達您的回答<br>Please select your best option.,None,,Mozilla,Netscape,5.0 (Windows),undefined,None,None,None,None,31-02-23,01-03-23,23:04:10,0,0,0,0,0,None,2,own10tuxu,246177,3.8.1,,5d17ce93ac37cd0019535088,6427c94388f25565aec7a7e3,641bb2543ae0d27e600659f5,5d17ce93ac37cd0019535088,6427c94388f25565aec7a7e3,641bb2543ae0d27e600659f5,2,z,7382,1040,1920,24,1080,24,-8,-8,1920,None,Win32,None,None,None,Pre_survey
None,None,None,None,請問您的性別？<br/>Your gender?<br/>輸入對應選項的號碼表達您的回答<br>Please select your best option.,None,,Mozilla,Netscape,5.0 (Windows),undefined,None,None,None,None,31-02-23,01-03-23,23:04:10,0,0,0,0,0,None,2,own10tuxu,246177,3.8.1,,5d17ce93ac37cd0019535088,6427c94388f25565aec7a7e3,641bb2543ae0d27e600659f5,5d17ce93ac37cd0019535088,6427c94388f25565aec7a7e3,641bb2543ae0d27e600659f5,enter,z,5648,1040,1920,24,1080,24,-8,-8,1920,None,Win32,None,None,None,Pre_survey
None,None,None,None,請輸入您的出生西元年4位數字<br />Your birth year?<br />例如: 出生年月日是 2000/1/1<br />If your birthday is 2000/1/1<br />請輸入: 2000<br />Input: 2000,None,2,Mozilla,Netscape,5.0 (Windows),undefined,None,None,None,None,31-02-23,01-03-23,23:04:10,0,0,0,0,0,None,,own10tuxu,246177,3.8.1,,5d17ce93ac37cd0019535088,6427c94388f25565aec7a7e3,641bb2543ae0d27e600659f5,5d17ce93ac37cd0019535088,6427c94388f25565aec7a7e3,641bb2543ae0d27e600659f5,2,z,4324,1040,1920,24,1080,24,-8,-8,1920,None,Win32,None,None,None,Pre_survey
None,None,None,None,請輸入您的出生西元年4位數字<br />Your birth year?<br />例如: 出生年月日是 2000/1/1<br />If your birthday is 2000/1/1<br />請輸入: 2000<br />Input: 2000,None,20,Mozilla,Netscape,5.0 (Windows),undefined,None,None,None,None,31-02-23,01-03-23,23:04:10,0,0,0,0,0,None,,own10tuxu,246177,3.8.1,,5d17ce93ac37cd0019535088,6427c94388f25565aec7a7e3,641bb2543ae0d27e600659f5,5d17ce93ac37cd0019535088,6427c94388f25565aec7a7e3,641bb2543ae0d27e600659f5,0,z,236,1040,1920,24,1080,24,-8,-8,1920,None,Win32,None,None,None,Pre_survey
None,None,None,None,請輸入您的出生西元年4位數字<br />Your birth year?<br />例如: 出生年月日是 2000/1/1<br />If your birthday is 2000/1/1<br />請輸入: 2000<br />Input: 2000,None,200,Mozilla,Netscape,5.0 (Windows),undefined,None,None,None,None,31-02-23,01-03-23,23:04:10,0,0,0,0,0,None,,own10tuxu,246177,3.8.1,,5d17ce93ac37cd0019535088,6427c94388f25565aec7a7e3,641bb2543ae0d27e600659f5,5d17ce93ac37cd0019535088,6427c94388f25565aec7a7e3,641bb2543ae0d27e600659f5,0,z,127,1040,1920,24,1080,24,-8,-8,1920,None,Win32,None,None,None,Pre_survey
None,None,None,None,請輸入您的出生西元年4位數字<br />Your birth year?<br />例如: 出生年月日是 2000/1/1<br />If your birthday is 2000/1/1<br />請輸入: 2000<br />Input: 2000,None,2000,Mozilla,Netscape,5.0 (Windows),undefined,None,None,None,None,31-02-23,01-03-23,23:04:10,0,0,0,0,0,None,,own10tuxu,246177,3.8.1,,5d17ce93ac37cd0019535088,6427c94388f25565aec7a7e3,641bb2543ae0d27e600659f5,5d17ce93ac37cd0019535088,6427c94388f25565aec7a7e3,641bb2543ae0d27e600659f5,0,z,492,1040,1920,24,1080,24,-8,-8,1920,None,Win32,None,None,None,Pre_survey
None,None,None,None,請輸入您的出生西元年4位數字<br />Your birth year?<br />例如: 出生年月日是 2000/1/1<br />If your birthday is 2000/1/1<br />請輸入: 2000<br />Input: 2000,None,2000,Mozilla,Netscape,5.0 (Windows),undefined,None,None,None,None,31-02-23,01-03-23,23:04:10,0,0,0,0,0,None,,own10tuxu,246177,3.8.1,,5d17ce93ac37cd0019535088,6427c94388f25565aec7a7e3,641bb2543ae0d27e600659f5,5d17ce93ac37cd0019535088,6427c94388f25565aec7a7e3,641bb2543ae0d27e600659f5,enter,z,3898,1040,1920,24,1080,24,-8,-8,1920,None,Win32,None,None,None,Pre_survey
None,None,None,None,請問你的母語是中文還是英文？<br/>Which is your native language? English or Chinese?<br/>輸入對應選項的號碼表達您的回答<br>Please select your best option.,None,,Mozilla,Netscape,5.0 (Windows),undefined,None,None,None,None,31-02-23,01-03-23,23:04:10,0,0,0,0,0,None,,own10tuxu,246177,3.8.1,1,5d17ce93ac37cd0019535088,6427c94388f25565aec7a7e3,641bb2543ae0d27e600659f5,5d17ce93ac37cd0019535088,6427c94388f25565aec7a7e3,641bb2543ae0d27e600659f5,1,z,2774,1040,1920,24,1080,24,-8,-8,1920,None,Win32,None,None,None,Pre_survey
None,None,None,None,請問你的母語是中文還是英文？<br/>Which is your native language? English or Chinese?<br/>輸入對應選項的號碼表達您的回答<br>Please select your best option.,None,,Mozilla,Netscape,5.0 (Windows),undefined,None,None,None,None,31-02-23,01-03-23,23:04:10,0,0,0,0,0,None,,own10tuxu,246177,3.8.1,1,5d17ce93ac37cd0019535088,6427c94388f25565aec7a7e3,641bb2543ae0d27e600659f5,5d17ce93ac37cd0019535088,6427c94388f25565aec7a7e3,641bb2543ae0d27e600659f5,enter,z,477,1040,1920,24,1080,24,-8,-8,1920,None,Win32,None,None,None,Pre_survey
None,0,None,6,Sara was _______ because her grandmother had put more money in her brother’s red <br/>envelope.,None,,Mozilla,Netscape,5.0 (Windows),1,None,Chinese_test_sc.csv,None,None,31-02-23,01-03-23,23:04:10,0,0,0,0,0,None,,own10tuxu,246177,3.8.1,1,5d17ce93ac37cd0019535088,6427c94388f25565aec7a7e3,641bb2543ae0d27e600659f5,5d17ce93ac37cd0019535088,6427c94388f25565aec7a7e3,641bb2543ae0d27e600659f5,3,z,9323,1040,1920,24,1080,24,-8,-8,1920,None,Win32,None,None,English_test.csv,E
None,0,None,3,Elementary school students don’t have as _______ homework as junior high students do.,None,,Mozilla,Netscape,5.0 (Windows),1,None,Chinese_test_sc.csv,None,None,31-02-23,01-03-23,23:04:10,0,0,0,0,0,None,,own10tuxu,246177,3.8.1,1,5d17ce93ac37cd0019535088,6427c94388f25565aec7a7e3,641bb2543ae0d27e600659f5,5d17ce93ac37cd0019535088,6427c94388f25565aec7a7e3,641bb2543ae0d27e600659f5,4,z,16871,1040,1920,24,1080,24,-8,-8,1920,None,Win32,None,None,English_test.csv,E
None,2,None,20,______ that something like this would happen to me.,None,,Mozilla,Netscape,5.0 (Windows),1,None,Chinese_test_sc.csv,None,None,31-02-23,01-03-23,23:04:10,0,0,0,0,0,None,,own10tuxu,246177,3.8.1,1,5d17ce93ac37cd0019535088,6427c94388f25565aec7a7e3,641bb2543ae0d27e600659f5,5d17ce93ac37cd0019535088,6427c94388f25565aec7a7e3,641bb2543ae0d27e600659f5,3,z,6990,1040,1920,24,1080,24,-8,-8,1920,None,Win32,None,None,English_test.csv,E
None,0,None,1,"Both of those horses live on Jack’s farm, but _______ on the left isn’t his.",None,,Mozilla,Netscape,5.0 (Windows),1,None,Chinese_test_sc.csv,None,None,31-02-23,01-03-23,23:04:10,0,0,0,0,0,None,,own10tuxu,246177,3.8.1,1,5d17ce93ac37cd0019535088,6427c94388f25565aec7a7e3,641bb2543ae0d27e600659f5,5d17ce93ac37cd0019535088,6427c94388f25565aec7a7e3,641bb2543ae0d27e600659f5,3,z,8108,1040,1920,24,1080,24,-8,-8,1920,None,Win32,None,None,English_test.csv,E
None,0,None,8,The boys are in school every day until four o’clock in the afternoon. After that they <br/>_______ an hour playing baseball.,None,,Mozilla,Netscape,5.0 (Windows),0,None,Chinese_test_sc.csv,None,None,31-02-23,01-03-23,23:04:10,0,0,0,0,0,None,,own10tuxu,246177,3.8.1,1,5d17ce93ac37cd0019535088,6427c94388f25565aec7a7e3,641bb2543ae0d27e600659f5,5d17ce93ac37cd0019535088,6427c94388f25565aec7a7e3,641bb2543ae0d27e600659f5,2,z,7655,1040,1920,24,1080,24,-8,-8,1920,None,Win32,None,None,English_test.csv,E
None,1,None,12,"_______ newspaper reports, flooding in the area near the river due to the storm has <br/>been much more serious than expected.",None,,Mozilla,Netscape,5.0 (Windows),1,None,Chinese_test_sc.csv,None,None,31-02-23,01-03-23,23:04:10,0,0,0,0,0,None,,own10tuxu,246177,3.8.1,1,5d17ce93ac37cd0019535088,6427c94388f25565aec7a7e3,641bb2543ae0d27e600659f5,5d17ce93ac37cd0019535088,6427c94388f25565aec7a7e3,641bb2543ae0d27e600659f5,2,z,5207,1040,1920,24,1080,24,-8,-8,1920,None,Win32,None,None,English_test.csv,E
None,1,None,11,Flight 305 _______ depart at 3:30 p.m. but was cancelled because of a mechanical<br/>problem in one of the engines.,None,,Mozilla,Netscape,5.0 (Windows),1,None,Chinese_test_sc.csv,None,None,31-02-23,01-03-23,23:04:10,0,0,0,0,0,None,,own10tuxu,246177,3.8.1,1,5d17ce93ac37cd0019535088,6427c94388f25565aec7a7e3,641bb2543ae0d27e600659f5,5d17ce93ac37cd0019535088,6427c94388f25565aec7a7e3,641bb2543ae0d27e600659f5,2,z,4288,1040,1920,24,1080,24,-8,-8,1920,None,Win32,None,None,English_test.csv,E
None,1,None,16,This proposal for a new high speed train _______ because the cost is too high.,None,,Mozilla,Netscape,5.0 (Windows),1,None,Chinese_test_sc.csv,None,None,31-02-23,01-03-23,23:04:10,0,0,0,0,0,None,,own10tuxu,246177,3.8.1,1,5d17ce93ac37cd0019535088,6427c94388f25565aec7a7e3,641bb2543ae0d27e600659f5,5d17ce93ac37cd0019535088,6427c94388f25565aec7a7e3,641bb2543ae0d27e600659f5,2,z,8230,1040,1920,24,1080,24,-8,-8,1920,None,Win32,None,None,English_test.csv,E
None,0,None,4,"Mom, Johnny’s mother doesn’t have enough chairs for her dinner guests.She wants to <br/>borrow one of _______.",None,,Mozilla,Netscape,5.0 (Windows),1,None,Chinese_test_sc.csv,None,None,31-02-23,01-03-23,23:04:10,0,0,0,0,0,None,,own10tuxu,246177,3.8.1,1,5d17ce93ac37cd0019535088,6427c94388f25565aec7a7e3,641bb2543ae0d27e600659f5,5d17ce93ac37cd0019535088,6427c94388f25565aec7a7e3,641bb2543ae0d27e600659f5,3,z,10651,1040,1920,24,1080,24,-8,-8,1920,None,Win32,None,None,English_test.csv,E
None,0,None,5,"The bus was full, but Judy saw an empty seat next to an old woman.“_______ I sit here?” <br/>she asked her.",None,,Mozilla,Netscape,5.0 (Windows),1,None,Chinese_test_sc.csv,None,None,31-02-23,01-03-23,23:04:10,0,0,0,0,0,None,,own10tuxu,246177,3.8.1,1,5d17ce93ac37cd0019535088,6427c94388f25565aec7a7e3,641bb2543ae0d27e600659f5,5d17ce93ac37cd0019535088,6427c94388f25565aec7a7e3,641bb2543ae0d27e600659f5,2,z,10408,1040,1920,24,1080,24,-8,-8,1920,None,Win32,None,None,English_test.csv,E
None,0,None,9,Writing letters _______ not as difficult as you think.,None,,Mozilla,Netscape,5.0 (Windows),1,None,Chinese_test_sc.csv,None,None,31-02-23,01-03-23,23:04:10,0,0,0,0,0,None,,own10tuxu,246177,3.8.1,1,5d17ce93ac37cd0019535088,6427c94388f25565aec7a7e3,641bb2543ae0d27e600659f5,5d17ce93ac37cd0019535088,6427c94388f25565aec7a7e3,641bb2543ae0d27e600659f5,4,z,4986,1040,1920,24,1080,24,-8,-8,1920,None,Win32,None,None,English_test.csv,E
None,1,None,14,"Depending on the _______ he is in, the boss will either thank you for your suggestion <br/>or fire you for criticizing his plan.",None,,Mozilla,Netscape,5.0 (Windows),1,None,Chinese_test_sc.csv,None,None,31-02-23,01-03-23,23:04:10,0,0,0,0,0,None,,own10tuxu,246177,3.8.1,1,5d17ce93ac37cd0019535088,6427c94388f25565aec7a7e3,641bb2543ae0d27e600659f5,5d17ce93ac37cd0019535088,6427c94388f25565aec7a7e3,641bb2543ae0d27e600659f5,4,z,4163,1040,1920,24,1080,24,-8,-8,1920,None,Win32,None,None,English_test.csv,E
None,1,None,10,Defensive drivers _______ their driving mirrors frequently so that they know at all <br/>times if there are other vehicles or people nearby.,None,,Mozilla,Netscape,5.0 (Windows),1,None,Chinese_test_sc.csv,None,None,31-02-23,01-03-23,23:04:10,0,0,0,0,0,None,,own10tuxu,246177,3.8.1,1,5d17ce93ac37cd0019535088,6427c94388f25565aec7a7e3,641bb2543ae0d27e600659f5,5d17ce93ac37cd0019535088,6427c94388f25565aec7a7e3,641bb2543ae0d27e600659f5,2,z,7511,1040,1920,24,1080,24,-8,-8,1920,None,Win32,None,None,English_test.csv,E
None,2,None,17,"To our surprise, Tina was given permission to enter the third grade, although she <br/>______ the previous grade.",None,,Mozilla,Netscape,5.0 (Windows),1,None,Chinese_test_sc.csv,None,None,31-02-23,01-03-23,23:04:10,0,0,0,0,0,None,,own10tuxu,246177,3.8.1,1,5d17ce93ac37cd0019535088,6427c94388f25565aec7a7e3,641bb2543ae0d27e600659f5,5d17ce93ac37cd0019535088,6427c94388f25565aec7a7e3,641bb2543ae0d27e600659f5,1,z,4692,1040,1920,24,1080,24,-8,-8,1920,None,Win32,None,None,English_test.csv,E
None,1,None,13,New computer technology has _______ changed the way Hollywood movies are made.,None,,Mozilla,Netscape,5.0 (Windows),1,None,Chinese_test_sc.csv,None,None,31-02-23,01-03-23,23:04:10,0,0,0,0,0,None,,own10tuxu,246177,3.8.1,1,5d17ce93ac37cd0019535088,6427c94388f25565aec7a7e3,641bb2543ae0d27e600659f5,5d17ce93ac37cd0019535088,6427c94388f25565aec7a7e3,641bb2543ae0d27e600659f5,4,z,4002,1040,1920,24,1080,24,-8,-8,1920,None,Win32,None,None,English_test.csv,E
None,1,None,15,_______ many desirable qualities which make it a commercially very useful metal.,None,,Mozilla,Netscape,5.0 (Windows),1,None,Chinese_test_sc.csv,None,None,31-02-23,01-03-23,23:04:10,0,0,0,0,0,None,,own10tuxu,246177,3.8.1,1,5d17ce93ac37cd0019535088,6427c94388f25565aec7a7e3,641bb2543ae0d27e600659f5,5d17ce93ac37cd0019535088,6427c94388f25565aec7a7e3,641bb2543ae0d27e600659f5,3,z,6888,1040,1920,24,1080,24,-8,-8,1920,None,Win32,None,None,English_test.csv,E
None,0,None,2,The student raced out of the classroom and bumped _______ a teacher who was carrying <br/>a cup of coffee.,None,,Mozilla,Netscape,5.0 (Windows),1,None,Chinese_test_sc.csv,None,None,31-02-23,01-03-23,23:04:10,0,0,0,0,0,None,,own10tuxu,246177,3.8.1,1,5d17ce93ac37cd0019535088,6427c94388f25565aec7a7e3,641bb2543ae0d27e600659f5,5d17ce93ac37cd0019535088,6427c94388f25565aec7a7e3,641bb2543ae0d27e600659f5,3,z,3591,1040,1920,24,1080,24,-8,-8,1920,None,Win32,None,None,English_test.csv,E
None,2,None,18,Some of Curt Wilder’s books have been widely read ______ others have remained <br/>relatively unknown.,None,,Mozilla,Netscape,5.0 (Windows),0,None,Chinese_test_sc.csv,None,None,31-02-23,01-03-23,23:04:10,0,0,0,0,0,None,,own10tuxu,246177,3.8.1,1,5d17ce93ac37cd0019535088,6427c94388f25565aec7a7e3,641bb2543ae0d27e600659f5,5d17ce93ac37cd0019535088,6427c94388f25565aec7a7e3,641bb2543ae0d27e600659f5,2,z,14814,1040,1920,24,1080,24,-8,-8,1920,None,Win32,None,None,English_test.csv,E
None,0,None,7,Please separate your garbage and _______ it in the appropriate containers.,None,,Mozilla,Netscape,5.0 (Windows),1,None,Chinese_test_sc.csv,None,None,31-02-23,01-03-23,23:04:10,0,0,0,0,0,None,,own10tuxu,246177,3.8.1,1,5d17ce93ac37cd0019535088,6427c94388f25565aec7a7e3,641bb2543ae0d27e600659f5,5d17ce93ac37cd0019535088,6427c94388f25565aec7a7e3,641bb2543ae0d27e600659f5,2,z,6265,1040,1920,24,1080,24,-8,-8,1920,None,Win32,None,None,English_test.csv,E
None,2,None,19,The current economic recession is threatening the ______ of many people in the country.,None,,Mozilla,Netscape,5.0 (Windows),1,None,Chinese_test_sc.csv,None,None,31-02-23,01-03-23,23:04:10,0,0,0,0,0,None,,own10tuxu,246177,3.8.1,1,5d17ce93ac37cd0019535088,6427c94388f25565aec7a7e3,641bb2543ae0d27e600659f5,5d17ce93ac37cd0019535088,6427c94388f25565aec7a7e3,641bb2543ae0d27e600659f5,2,z,4744,1040,1920,24,1080,24,-8,-8,1920,None,Win32,None,None,English_test.csv,E
None,1,None,11,下列各组句子的意思，何者可以用来说明友谊的重要？,None,,Mozilla,Netscape,5.0 (Windows),1,None,Chinese_test_sc.csv,None,None,31-02-23,01-03-23,23:04:10,0,0,0,0,0,None,,own10tuxu,246177,3.8.1,1,5d17ce93ac37cd0019535088,6427c94388f25565aec7a7e3,641bb2543ae0d27e600659f5,5d17ce93ac37cd0019535088,6427c94388f25565aec7a7e3,641bb2543ae0d27e600659f5,2,z,11910,1040,1920,24,1080,24,-8,-8,1920,None,Win32,None,None,Chinese_test_sc.csv,C
None,1,None,10,下列文句「 」中的词语，何者可以用（ ）的词语替代？,None,,Mozilla,Netscape,5.0 (Windows),1,None,Chinese_test_sc.csv,None,None,31-02-23,01-03-23,23:04:10,0,0,0,0,0,None,,own10tuxu,246177,3.8.1,1,5d17ce93ac37cd0019535088,6427c94388f25565aec7a7e3,641bb2543ae0d27e600659f5,5d17ce93ac37cd0019535088,6427c94388f25565aec7a7e3,641bb2543ae0d27e600659f5,4,z,21096,1040,1920,24,1080,24,-8,-8,1920,None,Win32,None,None,Chinese_test_sc.csv,C
None,2,None,20,下列文句「 」中的量词，何者使用是适当的？,None,,Mozilla,Netscape,5.0 (Windows),1,None,Chinese_test_sc.csv,None,None,31-02-23,01-03-23,23:04:10,0,0,0,0,0,None,,own10tuxu,246177,3.8.1,1,5d17ce93ac37cd0019535088,6427c94388f25565aec7a7e3,641bb2543ae0d27e600659f5,5d17ce93ac37cd0019535088,6427c94388f25565aec7a7e3,641bb2543ae0d27e600659f5,3,z,6005,1040,1920,24,1080,24,-8,-8,1920,None,Win32,None,None,Chinese_test_sc.csv,C
None,0,None,7,「_确定出游日期，众人_七嘴八舌的开始讨论细节。」<br/>_中的连接词最适合填入下列 哪一组？,None,,Mozilla,Netscape,5.0 (Windows),0,None,Chinese_test_sc.csv,None,None,31-02-23,01-03-23,23:04:10,0,0,0,0,0,None,,own10tuxu,246177,3.8.1,1,5d17ce93ac37cd0019535088,6427c94388f25565aec7a7e3,641bb2543ae0d27e600659f5,5d17ce93ac37cd0019535088,6427c94388f25565aec7a7e3,641bb2543ae0d27e600659f5,4,z,10471,1040,1920,24,1080,24,-8,-8,1920,None,Win32,None,None,Chinese_test_sc.csv,C
None,1,None,14,「参加运动竞赛，__有光明的失败，__要不荣誉的成功。」<br/>__中要填上下列哪一 组的连接词最适切？,None,,Mozilla,Netscape,5.0 (Windows),1,None,Chinese_test_sc.csv,None,None,31-02-23,01-03-23,23:04:10,0,0,0,0,0,None,,own10tuxu,246177,3.8.1,1,5d17ce93ac37cd0019535088,6427c94388f25565aec7a7e3,641bb2543ae0d27e600659f5,5d17ce93ac37cd0019535088,6427c94388f25565aec7a7e3,641bb2543ae0d27e600659f5,3,z,36322,1040,1920,24,1080,24,-8,-8,1920,None,Win32,None,None,Chinese_test_sc.csv,C
None,0,None,3,「当哥哥写完功课时，妈妈说：_________」<br/>下面四个选项中的哪句话，最不可能是妈妈的说话内容？,None,,Mozilla,Netscape,5.0 (Windows),1,None,Chinese_test_sc.csv,None,None,31-02-23,01-03-23,23:04:10,0,0,0,0,0,None,,own10tuxu,246177,3.8.1,1,5d17ce93ac37cd0019535088,6427c94388f25565aec7a7e3,641bb2543ae0d27e600659f5,5d17ce93ac37cd0019535088,6427c94388f25565aec7a7e3,641bb2543ae0d27e600659f5,3,z,18599,1040,1920,24,1080,24,-8,-8,1920,None,Win32,None,None,Chinese_test_sc.csv,C
None,1,None,12,下列「 」中的语词，何者意思前后相同？,None,,Mozilla,Netscape,5.0 (Windows),1,None,Chinese_test_sc.csv,None,None,31-02-23,01-03-23,23:04:10,0,0,0,0,0,None,,own10tuxu,246177,3.8.1,1,5d17ce93ac37cd0019535088,6427c94388f25565aec7a7e3,641bb2543ae0d27e600659f5,5d17ce93ac37cd0019535088,6427c94388f25565aec7a7e3,641bb2543ae0d27e600659f5,4,z,27665,1040,1920,24,1080,24,-8,-8,1920,None,Win32,None,None,Chinese_test_sc.csv,C
None,1,None,15,以下句子，何者连接词使用完全正确？,None,,Mozilla,Netscape,5.0 (Windows),0,None,Chinese_test_sc.csv,None,None,31-02-23,01-03-23,23:04:10,0,0,0,0,0,None,,own10tuxu,246177,3.8.1,1,5d17ce93ac37cd0019535088,6427c94388f25565aec7a7e3,641bb2543ae0d27e600659f5,5d17ce93ac37cd0019535088,6427c94388f25565aec7a7e3,641bb2543ae0d27e600659f5,1,z,53868,1040,1920,24,1080,24,-8,-8,1920,None,Win32,None,None,Chinese_test_sc.csv,C
None,0,None,8,我绝对不是这个「意思」，你不要误会。 <br/>上句「 」中的词语意思和下面哪一个相同？,None,,Mozilla,Netscape,5.0 (Windows),1,None,Chinese_test_sc.csv,None,None,31-02-23,01-03-23,23:04:10,0,0,0,0,0,None,,own10tuxu,246177,3.8.1,1,5d17ce93ac37cd0019535088,6427c94388f25565aec7a7e3,641bb2543ae0d27e600659f5,5d17ce93ac37cd0019535088,6427c94388f25565aec7a7e3,641bb2543ae0d27e600659f5,3,z,16409,1040,1920,24,1080,24,-8,-8,1920,None,Win32,None,None,Chinese_test_sc.csv,C
None,2,None,19,下列「 」中的词语，何者可以用后者代换，而不影响词义？,None,,Mozilla,Netscape,5.0 (Windows),1,None,Chinese_test_sc.csv,None,None,31-02-23,01-03-23,23:04:10,0,0,0,0,0,None,,own10tuxu,246177,3.8.1,1,5d17ce93ac37cd0019535088,6427c94388f25565aec7a7e3,641bb2543ae0d27e600659f5,5d17ce93ac37cd0019535088,6427c94388f25565aec7a7e3,641bb2543ae0d27e600659f5,1,z,15772,1040,1920,24,1080,24,-8,-8,1920,None,Win32,None,None,Chinese_test_sc.csv,C
None,0,None,2,下列句子中，何者「 」中的词语意思是相同的？,None,,Mozilla,Netscape,5.0 (Windows),0,None,Chinese_test_sc.csv,None,None,31-02-23,01-03-23,23:04:10,0,0,0,0,0,None,,own10tuxu,246177,3.8.1,1,5d17ce93ac37cd0019535088,6427c94388f25565aec7a7e3,641bb2543ae0d27e600659f5,5d17ce93ac37cd0019535088,6427c94388f25565aec7a7e3,641bb2543ae0d27e600659f5,3,z,14640,1040,1920,24,1080,24,-8,-8,1920,None,Win32,None,None,Chinese_test_sc.csv,C
None,1,None,13,下列哪一选项前后两句的意思相同？,None,,Mozilla,Netscape,5.0 (Windows),1,None,Chinese_test_sc.csv,None,None,31-02-23,01-03-23,23:04:10,0,0,0,0,0,None,,own10tuxu,246177,3.8.1,1,5d17ce93ac37cd0019535088,6427c94388f25565aec7a7e3,641bb2543ae0d27e600659f5,5d17ce93ac37cd0019535088,6427c94388f25565aec7a7e3,641bb2543ae0d27e600659f5,3,z,37639,1040,1920,24,1080,24,-8,-8,1920,None,Win32,None,None,Chinese_test_sc.csv,C
None,0,None,6,以下句子，何者连接词使用完全正确？,None,,Mozilla,Netscape,5.0 (Windows),0,None,Chinese_test_sc.csv,None,None,31-02-23,01-03-23,23:04:10,0,0,0,0,0,None,,own10tuxu,246177,3.8.1,1,5d17ce93ac37cd0019535088,6427c94388f25565aec7a7e3,641bb2543ae0d27e600659f5,5d17ce93ac37cd0019535088,6427c94388f25565aec7a7e3,641bb2543ae0d27e600659f5,3,z,11231,1040,1920,24,1080,24,-8,-8,1920,None,Win32,None,None,Chinese_test_sc.csv,C
None,2,None,17,「搅拌原料时，兴奋地思考着等下要怎么去装饰；放进烤箱后小心翼翼地__，<br/> 深怕一个疏忽就焦黑；出炉那一刻__空间的__香气，令人不禁想要偷吃。<br/>本书就是要__您进入烘烤点心这么一个令人幸福的甜美世界。」<br/>上述文__ 处，最适合填入下列哪一组语词？,None,,Mozilla,Netscape,5.0 (Windows),0,None,Chinese_test_sc.csv,None,None,31-02-23,01-03-23,23:04:10,0,0,0,0,0,None,,own10tuxu,246177,3.8.1,1,5d17ce93ac37cd0019535088,6427c94388f25565aec7a7e3,641bb2543ae0d27e600659f5,5d17ce93ac37cd0019535088,6427c94388f25565aec7a7e3,641bb2543ae0d27e600659f5,3,z,29380,1040,1920,24,1080,24,-8,-8,1920,None,Win32,None,None,Chinese_test_sc.csv,C
None,0,None,4,阿英对小华说：「每次出事你都不自己想办法解决，这次我决定不帮你了！」<br/>从阿英的话中可以推论：,None,,Mozilla,Netscape,5.0 (Windows),1,None,Chinese_test_sc.csv,None,None,31-02-23,01-03-23,23:04:10,0,0,0,0,0,None,,own10tuxu,246177,3.8.1,1,5d17ce93ac37cd0019535088,6427c94388f25565aec7a7e3,641bb2543ae0d27e600659f5,5d17ce93ac37cd0019535088,6427c94388f25565aec7a7e3,641bb2543ae0d27e600659f5,4,z,38896,1040,1920,24,1080,24,-8,-8,1920,None,Win32,None,None,Chinese_test_sc.csv,C
None,0,None,5,下列连接词，何者使用最适切？,None,,Mozilla,Netscape,5.0 (Windows),1,None,Chinese_test_sc.csv,None,None,31-02-23,01-03-23,23:04:10,0,0,0,0,0,None,,own10tuxu,246177,3.8.1,1,5d17ce93ac37cd0019535088,6427c94388f25565aec7a7e3,641bb2543ae0d27e600659f5,5d17ce93ac37cd0019535088,6427c94388f25565aec7a7e3,641bb2543ae0d27e600659f5,4,z,21180,1040,1920,24,1080,24,-8,-8,1920,None,Win32,None,None,Chinese_test_sc.csv,C
None,1,None,16,下列选项「 」中的词语，何者前后的词性及词义相同？,None,,Mozilla,Netscape,5.0 (Windows),1,None,Chinese_test_sc.csv,None,None,31-02-23,01-03-23,23:04:10,0,0,0,0,0,None,,own10tuxu,246177,3.8.1,1,5d17ce93ac37cd0019535088,6427c94388f25565aec7a7e3,641bb2543ae0d27e600659f5,5d17ce93ac37cd0019535088,6427c94388f25565aec7a7e3,641bb2543ae0d27e600659f5,2,z,11629,1040,1920,24,1080,24,-8,-8,1920,None,Win32,None,None,Chinese_test_sc.csv,C
None,0,None,1,下列各组「 」内词语意义，何者前后相同？,None,,Mozilla,Netscape,5.0 (Windows),1,None,Chinese_test_sc.csv,None,None,31-02-23,01-03-23,23:04:10,0,0,0,0,0,None,,own10tuxu,246177,3.8.1,1,5d17ce93ac37cd0019535088,6427c94388f25565aec7a7e3,641bb2543ae0d27e600659f5,5d17ce93ac37cd0019535088,6427c94388f25565aec7a7e3,641bb2543ae0d27e600659f5,4,z,21607,1040,1920,24,1080,24,-8,-8,1920,None,Win32,None,None,Chinese_test_sc.csv,C
None,0,None,9,下列哪个句子中的「决定」是动词？,None,,Mozilla,Netscape,5.0 (Windows),0,None,Chinese_test_sc.csv,None,None,31-02-23,01-03-23,23:04:10,0,0,0,0,0,None,,own10tuxu,246177,3.8.1,1,5d17ce93ac37cd0019535088,6427c94388f25565aec7a7e3,641bb2543ae0d27e600659f5,5d17ce93ac37cd0019535088,6427c94388f25565aec7a7e3,641bb2543ae0d27e600659f5,4,z,33860,1040,1920,24,1080,24,-8,-8,1920,None,Win32,None,None,Chinese_test_sc.csv,C
None,2,None,18,下列「 」中的词语，何组前后意义相同？,None,,Mozilla,Netscape,5.0 (Windows),0,None,Chinese_test_sc.csv,None,None,31-02-23,01-03-23,23:04:10,0,0,0,0,0,None,,own10tuxu,246177,3.8.1,1,5d17ce93ac37cd0019535088,6427c94388f25565aec7a7e3,641bb2543ae0d27e600659f5,5d17ce93ac37cd0019535088,6427c94388f25565aec7a7e3,641bb2543ae0d27e600659f5,4,z,42564,1040,1920,24,1080,24,-8,-8,1920,None,Win32,None,None,Chinese_test_sc.csv,C
None,None,None,None,None,None,None,Mozilla,Netscape,"5.0 (Windows NT 10.0; Win64; x64) AppleWebKit/537.36 (KHTML, like Gecko) Chrome/111.0.0.0 Safari/537.36 Edg/111.0.1661.54",undefined,None,None,None,None,30-02-23,30-02-23,12:50:01,0,0,0,0,0,None,None,q2hp4t03c,245373,3.8.1,None,615cf2d3e9dfb81e7ef3668d,6425bd8d83a27e836d215669,641bb2543ae0d27e600659f5,615cf2d3e9dfb81e7ef3668d,6425bd8d83a27e836d215669,641bb2543ae0d27e600659f5,a,z,88230,912,1536,24,960,24,0,0,1536,None,Win32,None,None,None,consent
None,None,None,None,請問您的性別？<br/>Your gender?<br/>輸入對應選項的號碼表達您的回答<br>Please select your best option.,None,,Mozilla,Netscape,"5.0 (Windows NT 10.0; Win64; x64) AppleWebKit/537.36 (KHTML, like Gecko) Chrome/111.0.0.0 Safari/537.36 Edg/111.0.1661.54",undefined,None,None,None,None,30-02-23,30-02-23,12:50:01,0,0,0,0,0,None,1,q2hp4t03c,245373,3.8.1,,615cf2d3e9dfb81e7ef3668d,6425bd8d83a27e836d215669,641bb2543ae0d27e600659f5,615cf2d3e9dfb81e7ef3668d,6425bd8d83a27e836d215669,641bb2543ae0d27e600659f5,1,z,6848,912,1536,24,960,24,0,0,1536,None,Win32,None,None,None,Pre_survey
None,None,None,None,請問您的性別？<br/>Your gender?<br/>輸入對應選項的號碼表達您的回答<br>Please select your best option.,None,,Mozilla,Netscape,"5.0 (Windows NT 10.0; Win64; x64) AppleWebKit/537.36 (KHTML, like Gecko) Chrome/111.0.0.0 Safari/537.36 Edg/111.0.1661.54",undefined,None,None,None,None,30-02-23,30-02-23,12:50:01,0,0,0,0,0,None,1,q2hp4t03c,245373,3.8.1,,615cf2d3e9dfb81e7ef3668d,6425bd8d83a27e836d215669,641bb2543ae0d27e600659f5,615cf2d3e9dfb81e7ef3668d,6425bd8d83a27e836d215669,641bb2543ae0d27e600659f5,enter,z,994,912,1536,24,960,24,0,0,1536,None,Win32,None,None,None,Pre_survey
None,None,None,None,請輸入您的出生西元年4位數字<br />Your birth year?<br />例如: 出生年月日是 2000/1/1<br />If your birthday is 2000/1/1<br />請輸入: 2000<br />Input: 2000,None,1,Mozilla,Netscape,"5.0 (Windows NT 10.0; Win64; x64) AppleWebKit/537.36 (KHTML, like Gecko) Chrome/111.0.0.0 Safari/537.36 Edg/111.0.1661.54",undefined,None,None,None,None,30-02-23,30-02-23,12:50:01,0,0,0,0,0,None,,q2hp4t03c,245373,3.8.1,,615cf2d3e9dfb81e7ef3668d,6425bd8d83a27e836d215669,641bb2543ae0d27e600659f5,615cf2d3e9dfb81e7ef3668d,6425bd8d83a27e836d215669,641bb2543ae0d27e600659f5,1,z,14280,912,1536,24,960,24,0,0,1536,None,Win32,None,None,None,Pre_survey
None,None,None,None,請輸入您的出生西元年4位數字<br />Your birth year?<br />例如: 出生年月日是 2000/1/1<br />If your birthday is 2000/1/1<br />請輸入: 2000<br />Input: 2000,None,19,Mozilla,Netscape,"5.0 (Windows NT 10.0; Win64; x64) AppleWebKit/537.36 (KHTML, like Gecko) Chrome/111.0.0.0 Safari/537.36 Edg/111.0.1661.54",undefined,None,None,None,None,30-02-23,30-02-23,12:50:01,0,0,0,0,0,None,,q2hp4t03c,245373,3.8.1,,615cf2d3e9dfb81e7ef3668d,6425bd8d83a27e836d215669,641bb2543ae0d27e600659f5,615cf2d3e9dfb81e7ef3668d,6425bd8d83a27e836d215669,641bb2543ae0d27e600659f5,9,z,1073,912,1536,24,960,24,0,0,1536,None,Win32,None,None,None,Pre_survey
None,None,None,None,請輸入您的出生西元年4位數字<br />Your birth year?<br />例如: 出生年月日是 2000/1/1<br />If your birthday is 2000/1/1<br />請輸入: 2000<br />Input: 2000,None,199,Mozilla,Netscape,"5.0 (Windows NT 10.0; Win64; x64) AppleWebKit/537.36 (KHTML, like Gecko) Chrome/111.0.0.0 Safari/537.36 Edg/111.0.1661.54",undefined,None,None,None,None,30-02-23,30-02-23,12:50:01,0,0,0,0,0,None,,q2hp4t03c,245373,3.8.1,,615cf2d3e9dfb81e7ef3668d,6425bd8d83a27e836d215669,641bb2543ae0d27e600659f5,615cf2d3e9dfb81e7ef3668d,6425bd8d83a27e836d215669,641bb2543ae0d27e600659f5,9,z,302,912,1536,24,960,24,0,0,1536,None,Win32,None,None,None,Pre_survey
None,None,None,None,請輸入您的出生西元年4位數字<br />Your birth year?<br />例如: 出生年月日是 2000/1/1<br />If your birthday is 2000/1/1<br />請輸入: 2000<br />Input: 2000,None,1999,Mozilla,Netscape,"5.0 (Windows NT 10.0; Win64; x64) AppleWebKit/537.36 (KHTML, like Gecko) Chrome/111.0.0.0 Safari/537.36 Edg/111.0.1661.54",undefined,None,None,None,None,30-02-23,30-02-23,12:50:01,0,0,0,0,0,None,,q2hp4t03c,245373,3.8.1,,615cf2d3e9dfb81e7ef3668d,6425bd8d83a27e836d215669,641bb2543ae0d27e600659f5,615cf2d3e9dfb81e7ef3668d,6425bd8d83a27e836d215669,641bb2543ae0d27e600659f5,9,z,195,912,1536,24,960,24,0,0,1536,None,Win32,None,None,None,Pre_survey
None,None,None,None,請輸入您的出生西元年4位數字<br />Your birth year?<br />例如: 出生年月日是 2000/1/1<br />If your birthday is 2000/1/1<br />請輸入: 2000<br />Input: 2000,None,1999,Mozilla,Netscape,"5.0 (Windows NT 10.0; Win64; x64) AppleWebKit/537.36 (KHTML, like Gecko) Chrome/111.0.0.0 Safari/537.36 Edg/111.0.1661.54",undefined,None,None,None,None,30-02-23,30-02-23,12:50:01,0,0,0,0,0,None,,q2hp4t03c,245373,3.8.1,,615cf2d3e9dfb81e7ef3668d,6425bd8d83a27e836d215669,641bb2543ae0d27e600659f5,615cf2d3e9dfb81e7ef3668d,6425bd8d83a27e836d215669,641bb2543ae0d27e600659f5,enter,z,8538,912,1536,24,960,24,0,0,1536,None,Win32,None,None,None,Pre_survey
None,None,None,None,請問你的母語是中文還是英文？<br/>Which is your native language? English or Chinese?<br/>輸入對應選項的號碼表達您的回答<br>Please select your best option.,None,,Mozilla,Netscape,"5.0 (Windows NT 10.0; Win64; x64) AppleWebKit/537.36 (KHTML, like Gecko) Chrome/111.0.0.0 Safari/537.36 Edg/111.0.1661.54",undefined,None,None,None,None,30-02-23,30-02-23,12:50:01,0,0,0,0,0,None,,q2hp4t03c,245373,3.8.1,1,615cf2d3e9dfb81e7ef3668d,6425bd8d83a27e836d215669,641bb2543ae0d27e600659f5,615cf2d3e9dfb81e7ef3668d,6425bd8d83a27e836d215669,641bb2543ae0d27e600659f5,1,z,54852,912,1536,24,960,24,0,0,1536,None,Win32,None,None,None,Pre_survey
None,None,None,None,請問你的母語是中文還是英文？<br/>Which is your native language? English or Chinese?<br/>輸入對應選項的號碼表達您的回答<br>Please select your best option.,None,,Mozilla,Netscape,"5.0 (Windows NT 10.0; Win64; x64) AppleWebKit/537.36 (KHTML, like Gecko) Chrome/111.0.0.0 Safari/537.36 Edg/111.0.1661.54",undefined,None,None,None,None,30-02-23,30-02-23,12:50:01,0,0,0,0,0,None,,q2hp4t03c,245373,3.8.1,1,615cf2d3e9dfb81e7ef3668d,6425bd8d83a27e836d215669,641bb2543ae0d27e600659f5,615cf2d3e9dfb81e7ef3668d,6425bd8d83a27e836d215669,641bb2543ae0d27e600659f5,enter,z,1525,912,1536,24,960,24,0,0,1536,None,Win32,None,None,None,Pre_survey
None,1,None,13,New computer technology has _______ changed the way Hollywood movies are made.,None,,Mozilla,Netscape,"5.0 (Windows NT 10.0; Win64; x64) AppleWebKit/537.36 (KHTML, like Gecko) Chrome/111.0.0.0 Safari/537.36 Edg/111.0.1661.54",1,None,Chinese_test_sc.csv,None,None,30-02-23,30-02-23,12:50:01,0,0,0,0,0,None,,q2hp4t03c,245373,3.8.1,1,615cf2d3e9dfb81e7ef3668d,6425bd8d83a27e836d215669,641bb2543ae0d27e600659f5,615cf2d3e9dfb81e7ef3668d,6425bd8d83a27e836d215669,641bb2543ae0d27e600659f5,1,z,8814,912,1536,24,960,24,0,0,1536,None,Win32,None,None,English_test.csv,E
None,0,None,5,"The bus was full, but Judy saw an empty seat next to an old woman.“_______ I sit here?” <br/>she asked her.",None,,Mozilla,Netscape,"5.0 (Windows NT 10.0; Win64; x64) AppleWebKit/537.36 (KHTML, like Gecko) Chrome/111.0.0.0 Safari/537.36 Edg/111.0.1661.54",1,None,Chinese_test_sc.csv,None,None,30-02-23,30-02-23,12:50:01,0,0,0,0,0,None,,q2hp4t03c,245373,3.8.1,1,615cf2d3e9dfb81e7ef3668d,6425bd8d83a27e836d215669,641bb2543ae0d27e600659f5,615cf2d3e9dfb81e7ef3668d,6425bd8d83a27e836d215669,641bb2543ae0d27e600659f5,3,z,8339,912,1536,24,960,24,0,0,1536,None,Win32,None,None,English_test.csv,E
None,0,None,7,Please separate your garbage and _______ it in the appropriate containers.,None,,Mozilla,Netscape,"5.0 (Windows NT 10.0; Win64; x64) AppleWebKit/537.36 (KHTML, like Gecko) Chrome/111.0.0.0 Safari/537.36 Edg/111.0.1661.54",1,None,Chinese_test_sc.csv,None,None,30-02-23,30-02-23,12:50:01,0,0,0,0,0,None,,q2hp4t03c,245373,3.8.1,1,615cf2d3e9dfb81e7ef3668d,6425bd8d83a27e836d215669,641bb2543ae0d27e600659f5,615cf2d3e9dfb81e7ef3668d,6425bd8d83a27e836d215669,641bb2543ae0d27e600659f5,2,z,6019,912,1536,24,960,24,0,0,1536,None,Win32,None,None,English_test.csv,E
None,1,None,12,"_______ newspaper reports, flooding in the area near the river due to the storm has <br/>been much more serious than expected.",None,,Mozilla,Netscape,"5.0 (Windows NT 10.0; Win64; x64) AppleWebKit/537.36 (KHTML, like Gecko) Chrome/111.0.0.0 Safari/537.36 Edg/111.0.1661.54",1,None,Chinese_test_sc.csv,None,None,30-02-23,30-02-23,12:50:01,0,0,0,0,0,None,,q2hp4t03c,245373,3.8.1,1,615cf2d3e9dfb81e7ef3668d,6425bd8d83a27e836d215669,641bb2543ae0d27e600659f5,615cf2d3e9dfb81e7ef3668d,6425bd8d83a27e836d215669,641bb2543ae0d27e600659f5,1,z,8639,912,1536,24,960,24,0,0,1536,None,Win32,None,None,English_test.csv,E
None,2,None,18,Some of Curt Wilder’s books have been widely read ______ others have remained <br/>relatively unknown.,None,,Mozilla,Netscape,"5.0 (Windows NT 10.0; Win64; x64) AppleWebKit/537.36 (KHTML, like Gecko) Chrome/111.0.0.0 Safari/537.36 Edg/111.0.1661.54",1,None,Chinese_test_sc.csv,None,None,30-02-23,30-02-23,12:50:01,0,0,0,0,0,None,,q2hp4t03c,245373,3.8.1,1,615cf2d3e9dfb81e7ef3668d,6425bd8d83a27e836d215669,641bb2543ae0d27e600659f5,615cf2d3e9dfb81e7ef3668d,6425bd8d83a27e836d215669,641bb2543ae0d27e600659f5,2,z,12953,912,1536,24,960,24,0,0,1536,None,Win32,None,None,English_test.csv,E
None,0,None,8,The boys are in school every day until four o’clock in the afternoon. After that they <br/>_______ an hour playing baseball.,None,,Mozilla,Netscape,"5.0 (Windows NT 10.0; Win64; x64) AppleWebKit/537.36 (KHTML, like Gecko) Chrome/111.0.0.0 Safari/537.36 Edg/111.0.1661.54",1,None,Chinese_test_sc.csv,None,None,30-02-23,30-02-23,12:50:01,0,0,0,0,0,None,,q2hp4t03c,245373,3.8.1,1,615cf2d3e9dfb81e7ef3668d,6425bd8d83a27e836d215669,641bb2543ae0d27e600659f5,615cf2d3e9dfb81e7ef3668d,6425bd8d83a27e836d215669,641bb2543ae0d27e600659f5,1,z,11890,912,1536,24,960,24,0,0,1536,None,Win32,None,None,English_test.csv,E
None,2,None,20,______ that something like this would happen to me.,None,,Mozilla,Netscape,"5.0 (Windows NT 10.0; Win64; x64) AppleWebKit/537.36 (KHTML, like Gecko) Chrome/111.0.0.0 Safari/537.36 Edg/111.0.1661.54",1,None,Chinese_test_sc.csv,None,None,30-02-23,30-02-23,12:50:01,0,0,0,0,0,None,,q2hp4t03c,245373,3.8.1,1,615cf2d3e9dfb81e7ef3668d,6425bd8d83a27e836d215669,641bb2543ae0d27e600659f5,615cf2d3e9dfb81e7ef3668d,6425bd8d83a27e836d215669,641bb2543ae0d27e600659f5,3,z,160320,912,1536,24,960,24,0,0,1536,None,Win32,None,None,English_test.csv,E
None,1,None,16,This proposal for a new high speed train _______ because the cost is too high.,None,,Mozilla,Netscape,"5.0 (Windows NT 10.0; Win64; x64) AppleWebKit/537.36 (KHTML, like Gecko) Chrome/111.0.0.0 Safari/537.36 Edg/111.0.1661.54",0,None,Chinese_test_sc.csv,None,None,30-02-23,30-02-23,12:50:01,0,0,0,0,0,None,,q2hp4t03c,245373,3.8.1,1,615cf2d3e9dfb81e7ef3668d,6425bd8d83a27e836d215669,641bb2543ae0d27e600659f5,615cf2d3e9dfb81e7ef3668d,6425bd8d83a27e836d215669,641bb2543ae0d27e600659f5,3,z,8821,912,1536,24,960,24,0,0,1536,None,Win32,None,None,English_test.csv,E
None,0,None,2,The student raced out of the classroom and bumped _______ a teacher who was carrying <br/>a cup of coffee.,None,,Mozilla,Netscape,"5.0 (Windows NT 10.0; Win64; x64) AppleWebKit/537.36 (KHTML, like Gecko) Chrome/111.0.0.0 Safari/537.36 Edg/111.0.1661.54",1,None,Chinese_test_sc.csv,None,None,30-02-23,30-02-23,12:50:01,0,0,0,0,0,None,,q2hp4t03c,245373,3.8.1,1,615cf2d3e9dfb81e7ef3668d,6425bd8d83a27e836d215669,641bb2543ae0d27e600659f5,615cf2d3e9dfb81e7ef3668d,6425bd8d83a27e836d215669,641bb2543ae0d27e600659f5,3,z,9160,912,1536,24,960,24,0,0,1536,None,Win32,None,None,English_test.csv,E
None,2,None,19,The current economic recession is threatening the ______ of many people in the country.,None,,Mozilla,Netscape,"5.0 (Windows NT 10.0; Win64; x64) AppleWebKit/537.36 (KHTML, like Gecko) Chrome/111.0.0.0 Safari/537.36 Edg/111.0.1661.54",1,None,Chinese_test_sc.csv,None,None,30-02-23,30-02-23,12:50:01,0,0,0,0,0,None,,q2hp4t03c,245373,3.8.1,1,615cf2d3e9dfb81e7ef3668d,6425bd8d83a27e836d215669,641bb2543ae0d27e600659f5,615cf2d3e9dfb81e7ef3668d,6425bd8d83a27e836d215669,641bb2543ae0d27e600659f5,3,z,5204,912,1536,24,960,24,0,0,1536,None,Win32,None,None,English_test.csv,E
None,0,None,4,"Mom, Johnny’s mother doesn’t have enough chairs for her dinner guests.She wants to <br/>borrow one of _______.",None,,Mozilla,Netscape,"5.0 (Windows NT 10.0; Win64; x64) AppleWebKit/537.36 (KHTML, like Gecko) Chrome/111.0.0.0 Safari/537.36 Edg/111.0.1661.54",1,None,Chinese_test_sc.csv,None,None,30-02-23,30-02-23,12:50:01,0,0,0,0,0,None,,q2hp4t03c,245373,3.8.1,1,615cf2d3e9dfb81e7ef3668d,6425bd8d83a27e836d215669,641bb2543ae0d27e600659f5,615cf2d3e9dfb81e7ef3668d,6425bd8d83a27e836d215669,641bb2543ae0d27e600659f5,2,z,8131,912,1536,24,960,24,0,0,1536,None,Win32,None,None,English_test.csv,E
None,1,None,15,_______ many desirable qualities which make it a commercially very useful metal.,None,,Mozilla,Netscape,"5.0 (Windows NT 10.0; Win64; x64) AppleWebKit/537.36 (KHTML, like Gecko) Chrome/111.0.0.0 Safari/537.36 Edg/111.0.1661.54",1,None,Chinese_test_sc.csv,None,None,30-02-23,30-02-23,12:50:01,0,0,0,0,0,None,,q2hp4t03c,245373,3.8.1,1,615cf2d3e9dfb81e7ef3668d,6425bd8d83a27e836d215669,641bb2543ae0d27e600659f5,615cf2d3e9dfb81e7ef3668d,6425bd8d83a27e836d215669,641bb2543ae0d27e600659f5,1,z,16737,912,1536,24,960,24,0,0,1536,None,Win32,None,None,English_test.csv,E
None,0,None,9,Writing letters _______ not as difficult as you think.,None,,Mozilla,Netscape,"5.0 (Windows NT 10.0; Win64; x64) AppleWebKit/537.36 (KHTML, like Gecko) Chrome/111.0.0.0 Safari/537.36 Edg/111.0.1661.54",1,None,Chinese_test_sc.csv,None,None,30-02-23,30-02-23,12:50:01,0,0,0,0,0,None,,q2hp4t03c,245373,3.8.1,1,615cf2d3e9dfb81e7ef3668d,6425bd8d83a27e836d215669,641bb2543ae0d27e600659f5,615cf2d3e9dfb81e7ef3668d,6425bd8d83a27e836d215669,641bb2543ae0d27e600659f5,4,z,4864,912,1536,24,960,24,0,0,1536,None,Win32,None,None,English_test.csv,E
None,0,None,3,Elementary school students don’t have as _______ homework as junior high students do.,None,,Mozilla,Netscape,"5.0 (Windows NT 10.0; Win64; x64) AppleWebKit/537.36 (KHTML, like Gecko) Chrome/111.0.0.0 Safari/537.36 Edg/111.0.1661.54",1,None,Chinese_test_sc.csv,None,None,30-02-23,30-02-23,12:50:01,0,0,0,0,0,None,,q2hp4t03c,245373,3.8.1,1,615cf2d3e9dfb81e7ef3668d,6425bd8d83a27e836d215669,641bb2543ae0d27e600659f5,615cf2d3e9dfb81e7ef3668d,6425bd8d83a27e836d215669,641bb2543ae0d27e600659f5,4,z,4724,912,1536,24,960,24,0,0,1536,None,Win32,None,None,English_test.csv,E
None,1,None,14,"Depending on the _______ he is in, the boss will either thank you for your suggestion <br/>or fire you for criticizing his plan.",None,,Mozilla,Netscape,"5.0 (Windows NT 10.0; Win64; x64) AppleWebKit/537.36 (KHTML, like Gecko) Chrome/111.0.0.0 Safari/537.36 Edg/111.0.1661.54",1,None,Chinese_test_sc.csv,None,None,30-02-23,30-02-23,12:50:01,0,0,0,0,0,None,,q2hp4t03c,245373,3.8.1,1,615cf2d3e9dfb81e7ef3668d,6425bd8d83a27e836d215669,641bb2543ae0d27e600659f5,615cf2d3e9dfb81e7ef3668d,6425bd8d83a27e836d215669,641bb2543ae0d27e600659f5,4,z,4101,912,1536,24,960,24,0,0,1536,None,Win32,None,None,English_test.csv,E
None,1,None,10,Defensive drivers _______ their driving mirrors frequently so that they know at all <br/>times if there are other vehicles or people nearby.,None,,Mozilla,Netscape,"5.0 (Windows NT 10.0; Win64; x64) AppleWebKit/537.36 (KHTML, like Gecko) Chrome/111.0.0.0 Safari/537.36 Edg/111.0.1661.54",1,None,Chinese_test_sc.csv,None,None,30-02-23,30-02-23,12:50:01,0,0,0,0,0,None,,q2hp4t03c,245373,3.8.1,1,615cf2d3e9dfb81e7ef3668d,6425bd8d83a27e836d215669,641bb2543ae0d27e600659f5,615cf2d3e9dfb81e7ef3668d,6425bd8d83a27e836d215669,641bb2543ae0d27e600659f5,1,z,13769,912,1536,24,960,24,0,0,1536,None,Win32,None,None,English_test.csv,E
None,0,None,1,"Both of those horses live on Jack’s farm, but _______ on the left isn’t his.",None,,Mozilla,Netscape,"5.0 (Windows NT 10.0; Win64; x64) AppleWebKit/537.36 (KHTML, like Gecko) Chrome/111.0.0.0 Safari/537.36 Edg/111.0.1661.54",0,None,Chinese_test_sc.csv,None,None,30-02-23,30-02-23,12:50:01,0,0,0,0,0,None,,q2hp4t03c,245373,3.8.1,1,615cf2d3e9dfb81e7ef3668d,6425bd8d83a27e836d215669,641bb2543ae0d27e600659f5,615cf2d3e9dfb81e7ef3668d,6425bd8d83a27e836d215669,641bb2543ae0d27e600659f5,2,z,16072,912,1536,24,960,24,0,0,1536,None,Win32,None,None,English_test.csv,E
None,2,None,17,"To our surprise, Tina was given permission to enter the third grade, although she <br/>______ the previous grade.",None,,Mozilla,Netscape,"5.0 (Windows NT 10.0; Win64; x64) AppleWebKit/537.36 (KHTML, like Gecko) Chrome/111.0.0.0 Safari/537.36 Edg/111.0.1661.54",1,None,Chinese_test_sc.csv,None,None,30-02-23,30-02-23,12:50:01,0,0,0,0,0,None,,q2hp4t03c,245373,3.8.1,1,615cf2d3e9dfb81e7ef3668d,6425bd8d83a27e836d215669,641bb2543ae0d27e600659f5,615cf2d3e9dfb81e7ef3668d,6425bd8d83a27e836d215669,641bb2543ae0d27e600659f5,3,z,21635,912,1536,24,960,24,0,0,1536,None,Win32,None,None,English_test.csv,E
None,1,None,11,Flight 305 _______ depart at 3:30 p.m. but was cancelled because of a mechanical<br/>problem in one of the engines.,None,,Mozilla,Netscape,"5.0 (Windows NT 10.0; Win64; x64) AppleWebKit/537.36 (KHTML, like Gecko) Chrome/111.0.0.0 Safari/537.36 Edg/111.0.1661.54",1,None,Chinese_test_sc.csv,None,None,30-02-23,30-02-23,12:50:01,0,0,0,0,0,None,,q2hp4t03c,245373,3.8.1,1,615cf2d3e9dfb81e7ef3668d,6425bd8d83a27e836d215669,641bb2543ae0d27e600659f5,615cf2d3e9dfb81e7ef3668d,6425bd8d83a27e836d215669,641bb2543ae0d27e600659f5,1,z,6023,912,1536,24,960,24,0,0,1536,None,Win32,None,None,English_test.csv,E
None,0,None,6,Sara was _______ because her grandmother had put more money in her brother’s red <br/>envelope.,None,,Mozilla,Netscape,"5.0 (Windows NT 10.0; Win64; x64) AppleWebKit/537.36 (KHTML, like Gecko) Chrome/111.0.0.0 Safari/537.36 Edg/111.0.1661.54",1,None,Chinese_test_sc.csv,None,None,30-02-23,30-02-23,12:50:01,0,0,0,0,0,None,,q2hp4t03c,245373,3.8.1,1,615cf2d3e9dfb81e7ef3668d,6425bd8d83a27e836d215669,641bb2543ae0d27e600659f5,615cf2d3e9dfb81e7ef3668d,6425bd8d83a27e836d215669,641bb2543ae0d27e600659f5,2,z,6415,912,1536,24,960,24,0,0,1536,None,Win32,None,None,English_test.csv,E
None,1,None,12,下列「 」中的语词，何者意思前后相同？,None,,Mozilla,Netscape,"5.0 (Windows NT 10.0; Win64; x64) AppleWebKit/537.36 (KHTML, like Gecko) Chrome/111.0.0.0 Safari/537.36 Edg/111.0.1661.54",1,None,Chinese_test_sc.csv,None,None,30-02-23,30-02-23,12:50:01,0,0,0,0,0,None,,q2hp4t03c,245373,3.8.1,1,615cf2d3e9dfb81e7ef3668d,6425bd8d83a27e836d215669,641bb2543ae0d27e600659f5,615cf2d3e9dfb81e7ef3668d,6425bd8d83a27e836d215669,641bb2543ae0d27e600659f5,2,z,11195,912,1536,24,960,24,0,0,1536,None,Win32,None,None,Chinese_test_sc.csv,C
None,1,None,14,「参加运动竞赛，__有光明的失败，__要不荣誉的成功。」<br/>__中要填上下列哪一 组的连接词最适切？,None,,Mozilla,Netscape,"5.0 (Windows NT 10.0; Win64; x64) AppleWebKit/537.36 (KHTML, like Gecko) Chrome/111.0.0.0 Safari/537.36 Edg/111.0.1661.54",1,None,Chinese_test_sc.csv,None,None,30-02-23,30-02-23,12:50:01,0,0,0,0,0,None,,q2hp4t03c,245373,3.8.1,1,615cf2d3e9dfb81e7ef3668d,6425bd8d83a27e836d215669,641bb2543ae0d27e600659f5,615cf2d3e9dfb81e7ef3668d,6425bd8d83a27e836d215669,641bb2543ae0d27e600659f5,1,z,13273,912,1536,24,960,24,0,0,1536,None,Win32,None,None,Chinese_test_sc.csv,C
None,1,None,10,下列文句「 」中的词语，何者可以用（ ）的词语替代？,None,,Mozilla,Netscape,"5.0 (Windows NT 10.0; Win64; x64) AppleWebKit/537.36 (KHTML, like Gecko) Chrome/111.0.0.0 Safari/537.36 Edg/111.0.1661.54",1,None,Chinese_test_sc.csv,None,None,30-02-23,30-02-23,12:50:01,0,0,0,0,0,None,,q2hp4t03c,245373,3.8.1,1,615cf2d3e9dfb81e7ef3668d,6425bd8d83a27e836d215669,641bb2543ae0d27e600659f5,615cf2d3e9dfb81e7ef3668d,6425bd8d83a27e836d215669,641bb2543ae0d27e600659f5,4,z,8811,912,1536,24,960,24,0,0,1536,None,Win32,None,None,Chinese_test_sc.csv,C
None,0,None,5,下列连接词，何者使用最适切？,None,,Mozilla,Netscape,"5.0 (Windows NT 10.0; Win64; x64) AppleWebKit/537.36 (KHTML, like Gecko) Chrome/111.0.0.0 Safari/537.36 Edg/111.0.1661.54",1,None,Chinese_test_sc.csv,None,None,30-02-23,30-02-23,12:50:01,0,0,0,0,0,None,,q2hp4t03c,245373,3.8.1,1,615cf2d3e9dfb81e7ef3668d,6425bd8d83a27e836d215669,641bb2543ae0d27e600659f5,615cf2d3e9dfb81e7ef3668d,6425bd8d83a27e836d215669,641bb2543ae0d27e600659f5,3,z,12191,912,1536,24,960,24,0,0,1536,None,Win32,None,None,Chinese_test_sc.csv,C
None,1,None,11,下列各组句子的意思，何者可以用来说明友谊的重要？,None,,Mozilla,Netscape,"5.0 (Windows NT 10.0; Win64; x64) AppleWebKit/537.36 (KHTML, like Gecko) Chrome/111.0.0.0 Safari/537.36 Edg/111.0.1661.54",1,None,Chinese_test_sc.csv,None,None,30-02-23,30-02-23,12:50:01,0,0,0,0,0,None,,q2hp4t03c,245373,3.8.1,1,615cf2d3e9dfb81e7ef3668d,6425bd8d83a27e836d215669,641bb2543ae0d27e600659f5,615cf2d3e9dfb81e7ef3668d,6425bd8d83a27e836d215669,641bb2543ae0d27e600659f5,4,z,5764,912,1536,24,960,24,0,0,1536,None,Win32,None,None,Chinese_test_sc.csv,C
None,0,None,2,下列句子中，何者「 」中的词语意思是相同的？,None,,Mozilla,Netscape,"5.0 (Windows NT 10.0; Win64; x64) AppleWebKit/537.36 (KHTML, like Gecko) Chrome/111.0.0.0 Safari/537.36 Edg/111.0.1661.54",1,None,Chinese_test_sc.csv,None,None,30-02-23,30-02-23,12:50:01,0,0,0,0,0,None,,q2hp4t03c,245373,3.8.1,1,615cf2d3e9dfb81e7ef3668d,6425bd8d83a27e836d215669,641bb2543ae0d27e600659f5,615cf2d3e9dfb81e7ef3668d,6425bd8d83a27e836d215669,641bb2543ae0d27e600659f5,4,z,9110,912,1536,24,960,24,0,0,1536,None,Win32,None,None,Chinese_test_sc.csv,C
None,0,None,3,「当哥哥写完功课时，妈妈说：_________」<br/>下面四个选项中的哪句话，最不可能是妈妈的说话内容？,None,,Mozilla,Netscape,"5.0 (Windows NT 10.0; Win64; x64) AppleWebKit/537.36 (KHTML, like Gecko) Chrome/111.0.0.0 Safari/537.36 Edg/111.0.1661.54",1,None,Chinese_test_sc.csv,None,None,30-02-23,30-02-23,12:50:01,0,0,0,0,0,None,,q2hp4t03c,245373,3.8.1,1,615cf2d3e9dfb81e7ef3668d,6425bd8d83a27e836d215669,641bb2543ae0d27e600659f5,615cf2d3e9dfb81e7ef3668d,6425bd8d83a27e836d215669,641bb2543ae0d27e600659f5,2,z,5845,912,1536,24,960,24,0,0,1536,None,Win32,None,None,Chinese_test_sc.csv,C
None,1,None,15,以下句子，何者连接词使用完全正确？,None,,Mozilla,Netscape,"5.0 (Windows NT 10.0; Win64; x64) AppleWebKit/537.36 (KHTML, like Gecko) Chrome/111.0.0.0 Safari/537.36 Edg/111.0.1661.54",1,None,Chinese_test_sc.csv,None,None,30-02-23,30-02-23,12:50:01,0,0,0,0,0,None,,q2hp4t03c,245373,3.8.1,1,615cf2d3e9dfb81e7ef3668d,6425bd8d83a27e836d215669,641bb2543ae0d27e600659f5,615cf2d3e9dfb81e7ef3668d,6425bd8d83a27e836d215669,641bb2543ae0d27e600659f5,2,z,5027,912,1536,24,960,24,0,0,1536,None,Win32,None,None,Chinese_test_sc.csv,C
