EXP_Block,Level,Presentation_style,Q_id,Question,Trial_type,birth_year,browser_codename,browser_name,browser_version,correct,correct_response,ctest_file,cue,cue_1,date_startdate,date_startdateUTC,date_starttime,experiment_debug,experiment_parameters,experiment_pilot,experiment_taskname,experiment_taskversion,gap,gender_code,identifier,jatosStudyResultId,jatosVersion,lang_code,prolific_participant_id,prolific_session_id,prolific_study_id,queryParams_PROLIFIC_PID,queryParams_SESSION_ID,queryParams_STUDY_ID,response,response_clang,response_time,screen_availableHeight,screen_availableWidth,screen_colorDepth,screen_height,screen_pixelDepth,screen_screenX,screen_screenY,screen_width,shape,system_os,target_color,target_shape,test_file,test_topic
None,None,None,None,None,None,None,Mozilla,Netscape,"5.0 (Windows NT 10.0; Win64; x64) AppleWebKit/537.36 (KHTML, like Gecko) Chrome/111.0.0.0 Safari/537.36",undefined,None,None,None,None,30-02-23,30-02-23,17:02:47,0,0,0,0,0,None,None,8gztxqdy4,245191,3.8.1,None,60beb34989463cab6c1d6c52,6425a44f0679c79877df00dd,641bb22edafdb9baaae4d584,60beb34989463cab6c1d6c52,6425a44f0679c79877df00dd,641bb22edafdb9baaae4d584,a,m,16027,672,1280,24,720,24,0,0,1280,None,Win32,None,None,None,consent
None,None,None,None,請問您的性別？<br/>Your gender?<br/>輸入對應選項的號碼表達您的回答<br>Please select your best option.,None,,Mozilla,Netscape,"5.0 (Windows NT 10.0; Win64; x64) AppleWebKit/537.36 (KHTML, like Gecko) Chrome/111.0.0.0 Safari/537.36",undefined,None,None,None,None,30-02-23,30-02-23,17:02:47,0,0,0,0,0,None,1,8gztxqdy4,245191,3.8.1,,60beb34989463cab6c1d6c52,6425a44f0679c79877df00dd,641bb22edafdb9baaae4d584,60beb34989463cab6c1d6c52,6425a44f0679c79877df00dd,641bb22edafdb9baaae4d584,1,m,10329,672,1280,24,720,24,0,0,1280,None,Win32,None,None,None,Pre_survey
None,None,None,None,請問您的性別？<br/>Your gender?<br/>輸入對應選項的號碼表達您的回答<br>Please select your best option.,None,,Mozilla,Netscape,"5.0 (Windows NT 10.0; Win64; x64) AppleWebKit/537.36 (KHTML, like Gecko) Chrome/111.0.0.0 Safari/537.36",undefined,None,None,None,None,30-02-23,30-02-23,17:02:47,0,0,0,0,0,None,1,8gztxqdy4,245191,3.8.1,,60beb34989463cab6c1d6c52,6425a44f0679c79877df00dd,641bb22edafdb9baaae4d584,60beb34989463cab6c1d6c52,6425a44f0679c79877df00dd,641bb22edafdb9baaae4d584,enter,m,3869,672,1280,24,720,24,0,0,1280,None,Win32,None,None,None,Pre_survey
None,None,None,None,請輸入您的出生西元年4位數字<br />Your birth year?<br />例如: 出生年月日是 2000/1/1<br />If your birthday is 2000/1/1<br />請輸入: 2000<br />Input: 2000,None,1,Mozilla,Netscape,"5.0 (Windows NT 10.0; Win64; x64) AppleWebKit/537.36 (KHTML, like Gecko) Chrome/111.0.0.0 Safari/537.36",undefined,None,None,None,None,30-02-23,30-02-23,17:02:47,0,0,0,0,0,None,,8gztxqdy4,245191,3.8.1,,60beb34989463cab6c1d6c52,6425a44f0679c79877df00dd,641bb22edafdb9baaae4d584,60beb34989463cab6c1d6c52,6425a44f0679c79877df00dd,641bb22edafdb9baaae4d584,1,m,19091,672,1280,24,720,24,0,0,1280,None,Win32,None,None,None,Pre_survey
None,None,None,None,請輸入您的出生西元年4位數字<br />Your birth year?<br />例如: 出生年月日是 2000/1/1<br />If your birthday is 2000/1/1<br />請輸入: 2000<br />Input: 2000,None,19,Mozilla,Netscape,"5.0 (Windows NT 10.0; Win64; x64) AppleWebKit/537.36 (KHTML, like Gecko) Chrome/111.0.0.0 Safari/537.36",undefined,None,None,None,None,30-02-23,30-02-23,17:02:47,0,0,0,0,0,None,,8gztxqdy4,245191,3.8.1,,60beb34989463cab6c1d6c52,6425a44f0679c79877df00dd,641bb22edafdb9baaae4d584,60beb34989463cab6c1d6c52,6425a44f0679c79877df00dd,641bb22edafdb9baaae4d584,9,m,1248,672,1280,24,720,24,0,0,1280,None,Win32,None,None,None,Pre_survey
None,None,None,None,請輸入您的出生西元年4位數字<br />Your birth year?<br />例如: 出生年月日是 2000/1/1<br />If your birthday is 2000/1/1<br />請輸入: 2000<br />Input: 2000,None,199,Mozilla,Netscape,"5.0 (Windows NT 10.0; Win64; x64) AppleWebKit/537.36 (KHTML, like Gecko) Chrome/111.0.0.0 Safari/537.36",undefined,None,None,None,None,30-02-23,30-02-23,17:02:47,0,0,0,0,0,None,,8gztxqdy4,245191,3.8.1,,60beb34989463cab6c1d6c52,6425a44f0679c79877df00dd,641bb22edafdb9baaae4d584,60beb34989463cab6c1d6c52,6425a44f0679c79877df00dd,641bb22edafdb9baaae4d584,9,m,124,672,1280,24,720,24,0,0,1280,None,Win32,None,None,None,Pre_survey
None,None,None,None,請輸入您的出生西元年4位數字<br />Your birth year?<br />例如: 出生年月日是 2000/1/1<br />If your birthday is 2000/1/1<br />請輸入: 2000<br />Input: 2000,None,1998,Mozilla,Netscape,"5.0 (Windows NT 10.0; Win64; x64) AppleWebKit/537.36 (KHTML, like Gecko) Chrome/111.0.0.0 Safari/537.36",undefined,None,None,None,None,30-02-23,30-02-23,17:02:47,0,0,0,0,0,None,,8gztxqdy4,245191,3.8.1,,60beb34989463cab6c1d6c52,6425a44f0679c79877df00dd,641bb22edafdb9baaae4d584,60beb34989463cab6c1d6c52,6425a44f0679c79877df00dd,641bb22edafdb9baaae4d584,8,m,161,672,1280,24,720,24,0,0,1280,None,Win32,None,None,None,Pre_survey
None,None,None,None,請輸入您的出生西元年4位數字<br />Your birth year?<br />例如: 出生年月日是 2000/1/1<br />If your birthday is 2000/1/1<br />請輸入: 2000<br />Input: 2000,None,1998,Mozilla,Netscape,"5.0 (Windows NT 10.0; Win64; x64) AppleWebKit/537.36 (KHTML, like Gecko) Chrome/111.0.0.0 Safari/537.36",undefined,None,None,None,None,30-02-23,30-02-23,17:02:47,0,0,0,0,0,None,,8gztxqdy4,245191,3.8.1,,60beb34989463cab6c1d6c52,6425a44f0679c79877df00dd,641bb22edafdb9baaae4d584,60beb34989463cab6c1d6c52,6425a44f0679c79877df00dd,641bb22edafdb9baaae4d584,enter,m,3166,672,1280,24,720,24,0,0,1280,None,Win32,None,None,None,Pre_survey
None,None,None,None,請問你的母語是中文還是英文？<br/>Which is your native language? English or Chinese?<br/>輸入對應選項的號碼表達您的回答<br>Please select your best option.,None,,Mozilla,Netscape,"5.0 (Windows NT 10.0; Win64; x64) AppleWebKit/537.36 (KHTML, like Gecko) Chrome/111.0.0.0 Safari/537.36",undefined,None,None,None,None,30-02-23,30-02-23,17:02:47,0,0,0,0,0,None,,8gztxqdy4,245191,3.8.1,2,60beb34989463cab6c1d6c52,6425a44f0679c79877df00dd,641bb22edafdb9baaae4d584,60beb34989463cab6c1d6c52,6425a44f0679c79877df00dd,641bb22edafdb9baaae4d584,2,m,7650,672,1280,24,720,24,0,0,1280,None,Win32,None,None,None,Pre_survey
None,None,None,None,請問你的母語是中文還是英文？<br/>Which is your native language? English or Chinese?<br/>輸入對應選項的號碼表達您的回答<br>Please select your best option.,None,,Mozilla,Netscape,"5.0 (Windows NT 10.0; Win64; x64) AppleWebKit/537.36 (KHTML, like Gecko) Chrome/111.0.0.0 Safari/537.36",undefined,None,None,None,None,30-02-23,30-02-23,17:02:47,0,0,0,0,0,None,,8gztxqdy4,245191,3.8.1,2,60beb34989463cab6c1d6c52,6425a44f0679c79877df00dd,641bb22edafdb9baaae4d584,60beb34989463cab6c1d6c52,6425a44f0679c79877df00dd,641bb22edafdb9baaae4d584,enter,m,2496,672,1280,24,720,24,0,0,1280,None,Win32,None,None,None,Pre_survey
None,0,None,4,"Mom, Johnny’s mother doesn’t have enough chairs for her dinner guests.She wants to <br/>borrow one of _______.",None,,Mozilla,Netscape,"5.0 (Windows NT 10.0; Win64; x64) AppleWebKit/537.36 (KHTML, like Gecko) Chrome/111.0.0.0 Safari/537.36",1,None,Chinese_test_tc.csv,None,None,30-02-23,30-02-23,17:02:47,0,0,0,0,0,None,,8gztxqdy4,245191,3.8.1,2,60beb34989463cab6c1d6c52,6425a44f0679c79877df00dd,641bb22edafdb9baaae4d584,60beb34989463cab6c1d6c52,6425a44f0679c79877df00dd,641bb22edafdb9baaae4d584,2,m,15205,672,1280,24,720,24,0,0,1280,None,Win32,None,None,English_test.csv,E
None,1,None,10,Defensive drivers _______ their driving mirrors frequently so that they know at all <br/>times if there are other vehicles or people nearby.,None,,Mozilla,Netscape,"5.0 (Windows NT 10.0; Win64; x64) AppleWebKit/537.36 (KHTML, like Gecko) Chrome/111.0.0.0 Safari/537.36",1,None,Chinese_test_tc.csv,None,None,30-02-23,30-02-23,17:02:47,0,0,0,0,0,None,,8gztxqdy4,245191,3.8.1,2,60beb34989463cab6c1d6c52,6425a44f0679c79877df00dd,641bb22edafdb9baaae4d584,60beb34989463cab6c1d6c52,6425a44f0679c79877df00dd,641bb22edafdb9baaae4d584,3,m,17872,672,1280,24,720,24,0,0,1280,None,Win32,None,None,English_test.csv,E
None,0,None,5,"The bus was full, but Judy saw an empty seat next to an old woman.“_______ I sit here?” <br/>she asked her.",None,,Mozilla,Netscape,"5.0 (Windows NT 10.0; Win64; x64) AppleWebKit/537.36 (KHTML, like Gecko) Chrome/111.0.0.0 Safari/537.36",1,None,Chinese_test_tc.csv,None,None,30-02-23,30-02-23,17:02:47,0,0,0,0,0,None,,8gztxqdy4,245191,3.8.1,2,60beb34989463cab6c1d6c52,6425a44f0679c79877df00dd,641bb22edafdb9baaae4d584,60beb34989463cab6c1d6c52,6425a44f0679c79877df00dd,641bb22edafdb9baaae4d584,3,m,7822,672,1280,24,720,24,0,0,1280,None,Win32,None,None,English_test.csv,E
None,0,None,2,The student raced out of the classroom and bumped _______ a teacher who was carrying <br/>a cup of coffee.,None,,Mozilla,Netscape,"5.0 (Windows NT 10.0; Win64; x64) AppleWebKit/537.36 (KHTML, like Gecko) Chrome/111.0.0.0 Safari/537.36",1,None,Chinese_test_tc.csv,None,None,30-02-23,30-02-23,17:02:47,0,0,0,0,0,None,,8gztxqdy4,245191,3.8.1,2,60beb34989463cab6c1d6c52,6425a44f0679c79877df00dd,641bb22edafdb9baaae4d584,60beb34989463cab6c1d6c52,6425a44f0679c79877df00dd,641bb22edafdb9baaae4d584,1,m,10799,672,1280,24,720,24,0,0,1280,None,Win32,None,None,English_test.csv,E
None,2,None,17,"To our surprise, Tina was given permission to enter the third grade, although she <br/>______ the previous grade.",None,,Mozilla,Netscape,"5.0 (Windows NT 10.0; Win64; x64) AppleWebKit/537.36 (KHTML, like Gecko) Chrome/111.0.0.0 Safari/537.36",1,None,Chinese_test_tc.csv,None,None,30-02-23,30-02-23,17:02:47,0,0,0,0,0,None,,8gztxqdy4,245191,3.8.1,2,60beb34989463cab6c1d6c52,6425a44f0679c79877df00dd,641bb22edafdb9baaae4d584,60beb34989463cab6c1d6c52,6425a44f0679c79877df00dd,641bb22edafdb9baaae4d584,4,m,12212,672,1280,24,720,24,0,0,1280,None,Win32,None,None,English_test.csv,E
None,0,None,7,Please separate your garbage and _______ it in the appropriate containers.,None,,Mozilla,Netscape,"5.0 (Windows NT 10.0; Win64; x64) AppleWebKit/537.36 (KHTML, like Gecko) Chrome/111.0.0.0 Safari/537.36",1,None,Chinese_test_tc.csv,None,None,30-02-23,30-02-23,17:02:47,0,0,0,0,0,None,,8gztxqdy4,245191,3.8.1,2,60beb34989463cab6c1d6c52,6425a44f0679c79877df00dd,641bb22edafdb9baaae4d584,60beb34989463cab6c1d6c52,6425a44f0679c79877df00dd,641bb22edafdb9baaae4d584,3,m,5703,672,1280,24,720,24,0,0,1280,None,Win32,None,None,English_test.csv,E
None,0,None,8,The boys are in school every day until four o’clock in the afternoon. After that they <br/>_______ an hour playing baseball.,None,,Mozilla,Netscape,"5.0 (Windows NT 10.0; Win64; x64) AppleWebKit/537.36 (KHTML, like Gecko) Chrome/111.0.0.0 Safari/537.36",1,None,Chinese_test_tc.csv,None,None,30-02-23,30-02-23,17:02:47,0,0,0,0,0,None,,8gztxqdy4,245191,3.8.1,2,60beb34989463cab6c1d6c52,6425a44f0679c79877df00dd,641bb22edafdb9baaae4d584,60beb34989463cab6c1d6c52,6425a44f0679c79877df00dd,641bb22edafdb9baaae4d584,3,m,12707,672,1280,24,720,24,0,0,1280,None,Win32,None,None,English_test.csv,E
None,1,None,14,"Depending on the _______ he is in, the boss will either thank you for your suggestion <br/>or fire you for criticizing his plan.",None,,Mozilla,Netscape,"5.0 (Windows NT 10.0; Win64; x64) AppleWebKit/537.36 (KHTML, like Gecko) Chrome/111.0.0.0 Safari/537.36",1,None,Chinese_test_tc.csv,None,None,30-02-23,30-02-23,17:02:47,0,0,0,0,0,None,,8gztxqdy4,245191,3.8.1,2,60beb34989463cab6c1d6c52,6425a44f0679c79877df00dd,641bb22edafdb9baaae4d584,60beb34989463cab6c1d6c52,6425a44f0679c79877df00dd,641bb22edafdb9baaae4d584,4,m,7448,672,1280,24,720,24,0,0,1280,None,Win32,None,None,English_test.csv,E
None,1,None,16,This proposal for a new high speed train _______ because the cost is too high.,None,,Mozilla,Netscape,"5.0 (Windows NT 10.0; Win64; x64) AppleWebKit/537.36 (KHTML, like Gecko) Chrome/111.0.0.0 Safari/537.36",1,None,Chinese_test_tc.csv,None,None,30-02-23,30-02-23,17:02:47,0,0,0,0,0,None,,8gztxqdy4,245191,3.8.1,2,60beb34989463cab6c1d6c52,6425a44f0679c79877df00dd,641bb22edafdb9baaae4d584,60beb34989463cab6c1d6c52,6425a44f0679c79877df00dd,641bb22edafdb9baaae4d584,1,m,18680,672,1280,24,720,24,0,0,1280,None,Win32,None,None,English_test.csv,E
None,2,None,19,The current economic recession is threatening the ______ of many people in the country.,None,,Mozilla,Netscape,"5.0 (Windows NT 10.0; Win64; x64) AppleWebKit/537.36 (KHTML, like Gecko) Chrome/111.0.0.0 Safari/537.36",1,None,Chinese_test_tc.csv,None,None,30-02-23,30-02-23,17:02:47,0,0,0,0,0,None,,8gztxqdy4,245191,3.8.1,2,60beb34989463cab6c1d6c52,6425a44f0679c79877df00dd,641bb22edafdb9baaae4d584,60beb34989463cab6c1d6c52,6425a44f0679c79877df00dd,641bb22edafdb9baaae4d584,4,m,8787,672,1280,24,720,24,0,0,1280,None,Win32,None,None,English_test.csv,E
None,0,None,6,Sara was _______ because her grandmother had put more money in her brother’s red <br/>envelope.,None,,Mozilla,Netscape,"5.0 (Windows NT 10.0; Win64; x64) AppleWebKit/537.36 (KHTML, like Gecko) Chrome/111.0.0.0 Safari/537.36",1,None,Chinese_test_tc.csv,None,None,30-02-23,30-02-23,17:02:47,0,0,0,0,0,None,,8gztxqdy4,245191,3.8.1,2,60beb34989463cab6c1d6c52,6425a44f0679c79877df00dd,641bb22edafdb9baaae4d584,60beb34989463cab6c1d6c52,6425a44f0679c79877df00dd,641bb22edafdb9baaae4d584,3,m,10780,672,1280,24,720,24,0,0,1280,None,Win32,None,None,English_test.csv,E
None,2,None,18,Some of Curt Wilder’s books have been widely read ______ others have remained <br/>relatively unknown.,None,,Mozilla,Netscape,"5.0 (Windows NT 10.0; Win64; x64) AppleWebKit/537.36 (KHTML, like Gecko) Chrome/111.0.0.0 Safari/537.36",1,None,Chinese_test_tc.csv,None,None,30-02-23,30-02-23,17:02:47,0,0,0,0,0,None,,8gztxqdy4,245191,3.8.1,2,60beb34989463cab6c1d6c52,6425a44f0679c79877df00dd,641bb22edafdb9baaae4d584,60beb34989463cab6c1d6c52,6425a44f0679c79877df00dd,641bb22edafdb9baaae4d584,1,m,9899,672,1280,24,720,24,0,0,1280,None,Win32,None,None,English_test.csv,E
None,0,None,9,Writing letters _______ not as difficult as you think.,None,,Mozilla,Netscape,"5.0 (Windows NT 10.0; Win64; x64) AppleWebKit/537.36 (KHTML, like Gecko) Chrome/111.0.0.0 Safari/537.36",1,None,Chinese_test_tc.csv,None,None,30-02-23,30-02-23,17:02:47,0,0,0,0,0,None,,8gztxqdy4,245191,3.8.1,2,60beb34989463cab6c1d6c52,6425a44f0679c79877df00dd,641bb22edafdb9baaae4d584,60beb34989463cab6c1d6c52,6425a44f0679c79877df00dd,641bb22edafdb9baaae4d584,3,m,6260,672,1280,24,720,24,0,0,1280,None,Win32,None,None,English_test.csv,E
None,2,None,20,______ that something like this would happen to me.,None,,Mozilla,Netscape,"5.0 (Windows NT 10.0; Win64; x64) AppleWebKit/537.36 (KHTML, like Gecko) Chrome/111.0.0.0 Safari/537.36",1,None,Chinese_test_tc.csv,None,None,30-02-23,30-02-23,17:02:47,0,0,0,0,0,None,,8gztxqdy4,245191,3.8.1,2,60beb34989463cab6c1d6c52,6425a44f0679c79877df00dd,641bb22edafdb9baaae4d584,60beb34989463cab6c1d6c52,6425a44f0679c79877df00dd,641bb22edafdb9baaae4d584,3,m,41884,672,1280,24,720,24,0,0,1280,None,Win32,None,None,English_test.csv,E
None,1,None,12,"_______ newspaper reports, flooding in the area near the river due to the storm has <br/>been much more serious than expected.",None,,Mozilla,Netscape,"5.0 (Windows NT 10.0; Win64; x64) AppleWebKit/537.36 (KHTML, like Gecko) Chrome/111.0.0.0 Safari/537.36",1,None,Chinese_test_tc.csv,None,None,30-02-23,30-02-23,17:02:47,0,0,0,0,0,None,,8gztxqdy4,245191,3.8.1,2,60beb34989463cab6c1d6c52,6425a44f0679c79877df00dd,641bb22edafdb9baaae4d584,60beb34989463cab6c1d6c52,6425a44f0679c79877df00dd,641bb22edafdb9baaae4d584,1,m,8009,672,1280,24,720,24,0,0,1280,None,Win32,None,None,English_test.csv,E
None,1,None,11,Flight 305 _______ depart at 3:30 p.m. but was cancelled because of a mechanical<br/>problem in one of the engines.,None,,Mozilla,Netscape,"5.0 (Windows NT 10.0; Win64; x64) AppleWebKit/537.36 (KHTML, like Gecko) Chrome/111.0.0.0 Safari/537.36",1,None,Chinese_test_tc.csv,None,None,30-02-23,30-02-23,17:02:47,0,0,0,0,0,None,,8gztxqdy4,245191,3.8.1,2,60beb34989463cab6c1d6c52,6425a44f0679c79877df00dd,641bb22edafdb9baaae4d584,60beb34989463cab6c1d6c52,6425a44f0679c79877df00dd,641bb22edafdb9baaae4d584,4,m,10400,672,1280,24,720,24,0,0,1280,None,Win32,None,None,English_test.csv,E
None,0,None,1,"Both of those horses live on Jack’s farm, but _______ on the left isn’t his.",None,,Mozilla,Netscape,"5.0 (Windows NT 10.0; Win64; x64) AppleWebKit/537.36 (KHTML, like Gecko) Chrome/111.0.0.0 Safari/537.36",1,None,Chinese_test_tc.csv,None,None,30-02-23,30-02-23,17:02:47,0,0,0,0,0,None,,8gztxqdy4,245191,3.8.1,2,60beb34989463cab6c1d6c52,6425a44f0679c79877df00dd,641bb22edafdb9baaae4d584,60beb34989463cab6c1d6c52,6425a44f0679c79877df00dd,641bb22edafdb9baaae4d584,2,m,18796,672,1280,24,720,24,0,0,1280,None,Win32,None,None,English_test.csv,E
None,1,None,13,New computer technology has _______ changed the way Hollywood movies are made.,None,,Mozilla,Netscape,"5.0 (Windows NT 10.0; Win64; x64) AppleWebKit/537.36 (KHTML, like Gecko) Chrome/111.0.0.0 Safari/537.36",1,None,Chinese_test_tc.csv,None,None,30-02-23,30-02-23,17:02:47,0,0,0,0,0,None,,8gztxqdy4,245191,3.8.1,2,60beb34989463cab6c1d6c52,6425a44f0679c79877df00dd,641bb22edafdb9baaae4d584,60beb34989463cab6c1d6c52,6425a44f0679c79877df00dd,641bb22edafdb9baaae4d584,2,m,11412,672,1280,24,720,24,0,0,1280,None,Win32,None,None,English_test.csv,E
None,1,None,15,_______ many desirable qualities which make it a commercially very useful metal.,None,,Mozilla,Netscape,"5.0 (Windows NT 10.0; Win64; x64) AppleWebKit/537.36 (KHTML, like Gecko) Chrome/111.0.0.0 Safari/537.36",1,None,Chinese_test_tc.csv,None,None,30-02-23,30-02-23,17:02:47,0,0,0,0,0,None,,8gztxqdy4,245191,3.8.1,2,60beb34989463cab6c1d6c52,6425a44f0679c79877df00dd,641bb22edafdb9baaae4d584,60beb34989463cab6c1d6c52,6425a44f0679c79877df00dd,641bb22edafdb9baaae4d584,3,m,14289,672,1280,24,720,24,0,0,1280,None,Win32,None,None,English_test.csv,E
None,0,None,3,Elementary school students don’t have as _______ homework as junior high students do.,None,,Mozilla,Netscape,"5.0 (Windows NT 10.0; Win64; x64) AppleWebKit/537.36 (KHTML, like Gecko) Chrome/111.0.0.0 Safari/537.36",1,None,Chinese_test_tc.csv,None,None,30-02-23,30-02-23,17:02:47,0,0,0,0,0,None,,8gztxqdy4,245191,3.8.1,2,60beb34989463cab6c1d6c52,6425a44f0679c79877df00dd,641bb22edafdb9baaae4d584,60beb34989463cab6c1d6c52,6425a44f0679c79877df00dd,641bb22edafdb9baaae4d584,1,m,7443,672,1280,24,720,24,0,0,1280,None,Win32,None,None,English_test.csv,E
None,0,None,3,「當哥哥寫完功課時，媽媽說：_________」<br/>下面四個選項中的哪句話，最不可能是媽媽的說話內容？,None,,Mozilla,Netscape,"5.0 (Windows NT 10.0; Win64; x64) AppleWebKit/537.36 (KHTML, like Gecko) Chrome/111.0.0.0 Safari/537.36",0,None,Chinese_test_tc.csv,None,None,30-02-23,30-02-23,17:02:47,0,0,0,0,0,None,,8gztxqdy4,245191,3.8.1,2,60beb34989463cab6c1d6c52,6425a44f0679c79877df00dd,641bb22edafdb9baaae4d584,60beb34989463cab6c1d6c52,6425a44f0679c79877df00dd,641bb22edafdb9baaae4d584,4,m,6023,672,1280,24,720,24,0,0,1280,None,Win32,None,None,Chinese_test_tc.csv,C
None,2,None,19,下列「 」中的詞語，何者可以用後者代換，而不影響詞義？,None,,Mozilla,Netscape,"5.0 (Windows NT 10.0; Win64; x64) AppleWebKit/537.36 (KHTML, like Gecko) Chrome/111.0.0.0 Safari/537.36",0,None,Chinese_test_tc.csv,None,None,30-02-23,30-02-23,17:02:47,0,0,0,0,0,None,,8gztxqdy4,245191,3.8.1,2,60beb34989463cab6c1d6c52,6425a44f0679c79877df00dd,641bb22edafdb9baaae4d584,60beb34989463cab6c1d6c52,6425a44f0679c79877df00dd,641bb22edafdb9baaae4d584,2,m,4169,672,1280,24,720,24,0,0,1280,None,Win32,None,None,Chinese_test_tc.csv,C
None,1,None,13,下列哪一選項前後兩句的意思相同？,None,,Mozilla,Netscape,"5.0 (Windows NT 10.0; Win64; x64) AppleWebKit/537.36 (KHTML, like Gecko) Chrome/111.0.0.0 Safari/537.36",0,None,Chinese_test_tc.csv,None,None,30-02-23,30-02-23,17:02:47,0,0,0,0,0,None,,8gztxqdy4,245191,3.8.1,2,60beb34989463cab6c1d6c52,6425a44f0679c79877df00dd,641bb22edafdb9baaae4d584,60beb34989463cab6c1d6c52,6425a44f0679c79877df00dd,641bb22edafdb9baaae4d584,4,m,2015,672,1280,24,720,24,0,0,1280,None,Win32,None,None,Chinese_test_tc.csv,C
None,2,None,17,「攪拌原料時，興奮地思考著等下要怎麼去裝飾；放進烤箱後小心翼翼地__，<br/> 深怕一個疏忽就焦黑；出爐那一刻__空間的__香氣，令人不禁想要偷吃。<br/>本書就是要__您進入烘烤點心這麼一個令人幸福的甜美世界。」<br/>上述文__ 處，最適合填入下列哪一組語詞？,None,,Mozilla,Netscape,"5.0 (Windows NT 10.0; Win64; x64) AppleWebKit/537.36 (KHTML, like Gecko) Chrome/111.0.0.0 Safari/537.36",0,None,Chinese_test_tc.csv,None,None,30-02-23,30-02-23,17:02:47,0,0,0,0,0,None,,8gztxqdy4,245191,3.8.1,2,60beb34989463cab6c1d6c52,6425a44f0679c79877df00dd,641bb22edafdb9baaae4d584,60beb34989463cab6c1d6c52,6425a44f0679c79877df00dd,641bb22edafdb9baaae4d584,3,m,1050,672,1280,24,720,24,0,0,1280,None,Win32,None,None,Chinese_test_tc.csv,C
None,0,None,7,「_確定出遊日期，眾人_七嘴八舌的開始討論細節。」<br/>_中的連接詞最適合填入下列 哪一組？,None,,Mozilla,Netscape,"5.0 (Windows NT 10.0; Win64; x64) AppleWebKit/537.36 (KHTML, like Gecko) Chrome/111.0.0.0 Safari/537.36",1,None,Chinese_test_tc.csv,None,None,30-02-23,30-02-23,17:02:47,0,0,0,0,0,None,,8gztxqdy4,245191,3.8.1,2,60beb34989463cab6c1d6c52,6425a44f0679c79877df00dd,641bb22edafdb9baaae4d584,60beb34989463cab6c1d6c52,6425a44f0679c79877df00dd,641bb22edafdb9baaae4d584,2,m,1242,672,1280,24,720,24,0,0,1280,None,Win32,None,None,Chinese_test_tc.csv,C
None,1,None,16,下列選項「 」中的詞語，何者前後的詞性及詞義相同？,None,,Mozilla,Netscape,"5.0 (Windows NT 10.0; Win64; x64) AppleWebKit/537.36 (KHTML, like Gecko) Chrome/111.0.0.0 Safari/537.36",0,None,Chinese_test_tc.csv,None,None,30-02-23,30-02-23,17:02:47,0,0,0,0,0,None,,8gztxqdy4,245191,3.8.1,2,60beb34989463cab6c1d6c52,6425a44f0679c79877df00dd,641bb22edafdb9baaae4d584,60beb34989463cab6c1d6c52,6425a44f0679c79877df00dd,641bb22edafdb9baaae4d584,2,m,3390,672,1280,24,720,24,0,0,1280,None,Win32,None,None,Chinese_test_tc.csv,C
None,0,None,9,下列哪個句子中的「決定」是動詞？,None,,Mozilla,Netscape,"5.0 (Windows NT 10.0; Win64; x64) AppleWebKit/537.36 (KHTML, like Gecko) Chrome/111.0.0.0 Safari/537.36",1,None,Chinese_test_tc.csv,None,None,30-02-23,30-02-23,17:02:47,0,0,0,0,0,None,,8gztxqdy4,245191,3.8.1,2,60beb34989463cab6c1d6c52,6425a44f0679c79877df00dd,641bb22edafdb9baaae4d584,60beb34989463cab6c1d6c52,6425a44f0679c79877df00dd,641bb22edafdb9baaae4d584,4,m,1051,672,1280,24,720,24,0,0,1280,None,Win32,None,None,Chinese_test_tc.csv,C
None,0,None,8,我絕對不是這個「意思」，你不要誤會。<br/>上句「 」中的詞語意思和下面哪一個相同？,None,,Mozilla,Netscape,"5.0 (Windows NT 10.0; Win64; x64) AppleWebKit/537.36 (KHTML, like Gecko) Chrome/111.0.0.0 Safari/537.36",0,None,Chinese_test_tc.csv,None,None,30-02-23,30-02-23,17:02:47,0,0,0,0,0,None,,8gztxqdy4,245191,3.8.1,2,60beb34989463cab6c1d6c52,6425a44f0679c79877df00dd,641bb22edafdb9baaae4d584,60beb34989463cab6c1d6c52,6425a44f0679c79877df00dd,641bb22edafdb9baaae4d584,3,m,1549,672,1280,24,720,24,0,0,1280,None,Win32,None,None,Chinese_test_tc.csv,C
None,0,None,6,以下句子，何者連接詞使用完全正確？,None,,Mozilla,Netscape,"5.0 (Windows NT 10.0; Win64; x64) AppleWebKit/537.36 (KHTML, like Gecko) Chrome/111.0.0.0 Safari/537.36",0,None,Chinese_test_tc.csv,None,None,30-02-23,30-02-23,17:02:47,0,0,0,0,0,None,,8gztxqdy4,245191,3.8.1,2,60beb34989463cab6c1d6c52,6425a44f0679c79877df00dd,641bb22edafdb9baaae4d584,60beb34989463cab6c1d6c52,6425a44f0679c79877df00dd,641bb22edafdb9baaae4d584,4,m,1497,672,1280,24,720,24,0,0,1280,None,Win32,None,None,Chinese_test_tc.csv,C
None,2,None,18,下列「 」中的詞語，何組前後意義相同？,None,,Mozilla,Netscape,"5.0 (Windows NT 10.0; Win64; x64) AppleWebKit/537.36 (KHTML, like Gecko) Chrome/111.0.0.0 Safari/537.36",1,None,Chinese_test_tc.csv,None,None,30-02-23,30-02-23,17:02:47,0,0,0,0,0,None,,8gztxqdy4,245191,3.8.1,2,60beb34989463cab6c1d6c52,6425a44f0679c79877df00dd,641bb22edafdb9baaae4d584,60beb34989463cab6c1d6c52,6425a44f0679c79877df00dd,641bb22edafdb9baaae4d584,3,m,1632,672,1280,24,720,24,0,0,1280,None,Win32,None,None,Chinese_test_tc.csv,C
None,1,None,14,「參加運動競賽，__有光明的失敗，__要不榮譽的成功。」<br/>__中要填上下列哪一 組的連接詞最適切？,None,,Mozilla,Netscape,"5.0 (Windows NT 10.0; Win64; x64) AppleWebKit/537.36 (KHTML, like Gecko) Chrome/111.0.0.0 Safari/537.36",0,None,Chinese_test_tc.csv,None,None,30-02-23,30-02-23,17:02:47,0,0,0,0,0,None,,8gztxqdy4,245191,3.8.1,2,60beb34989463cab6c1d6c52,6425a44f0679c79877df00dd,641bb22edafdb9baaae4d584,60beb34989463cab6c1d6c52,6425a44f0679c79877df00dd,641bb22edafdb9baaae4d584,3,m,867,672,1280,24,720,24,0,0,1280,None,Win32,None,None,Chinese_test_tc.csv,C
None,1,None,12,下列「 」中的語詞，何者意思前後相同？,None,,Mozilla,Netscape,"5.0 (Windows NT 10.0; Win64; x64) AppleWebKit/537.36 (KHTML, like Gecko) Chrome/111.0.0.0 Safari/537.36",1,None,Chinese_test_tc.csv,None,None,30-02-23,30-02-23,17:02:47,0,0,0,0,0,None,,8gztxqdy4,245191,3.8.1,2,60beb34989463cab6c1d6c52,6425a44f0679c79877df00dd,641bb22edafdb9baaae4d584,60beb34989463cab6c1d6c52,6425a44f0679c79877df00dd,641bb22edafdb9baaae4d584,2,m,545,672,1280,24,720,24,0,0,1280,None,Win32,None,None,Chinese_test_tc.csv,C
None,0,None,4,阿英對小華說：「每次出事你都不自己想辦法解決，這次我決定不幫你了！」<br/>從阿英的話中可以推論：,None,,Mozilla,Netscape,"5.0 (Windows NT 10.0; Win64; x64) AppleWebKit/537.36 (KHTML, like Gecko) Chrome/111.0.0.0 Safari/537.36",1,None,Chinese_test_tc.csv,None,None,30-02-23,30-02-23,17:02:47,0,0,0,0,0,None,,8gztxqdy4,245191,3.8.1,2,60beb34989463cab6c1d6c52,6425a44f0679c79877df00dd,641bb22edafdb9baaae4d584,60beb34989463cab6c1d6c52,6425a44f0679c79877df00dd,641bb22edafdb9baaae4d584,1,m,1230,672,1280,24,720,24,0,0,1280,None,Win32,None,None,Chinese_test_tc.csv,C
None,1,None,15,以下句子，何者連接詞使用完全正確？,None,,Mozilla,Netscape,"5.0 (Windows NT 10.0; Win64; x64) AppleWebKit/537.36 (KHTML, like Gecko) Chrome/111.0.0.0 Safari/537.36",0,None,Chinese_test_tc.csv,None,None,30-02-23,30-02-23,17:02:47,0,0,0,0,0,None,,8gztxqdy4,245191,3.8.1,2,60beb34989463cab6c1d6c52,6425a44f0679c79877df00dd,641bb22edafdb9baaae4d584,60beb34989463cab6c1d6c52,6425a44f0679c79877df00dd,641bb22edafdb9baaae4d584,3,m,582,672,1280,24,720,24,0,0,1280,None,Win32,None,None,Chinese_test_tc.csv,C
None,0,None,5,下列連接詞，何者使用最適切？,None,,Mozilla,Netscape,"5.0 (Windows NT 10.0; Win64; x64) AppleWebKit/537.36 (KHTML, like Gecko) Chrome/111.0.0.0 Safari/537.36",0,None,Chinese_test_tc.csv,None,None,30-02-23,30-02-23,17:02:47,0,0,0,0,0,None,,8gztxqdy4,245191,3.8.1,2,60beb34989463cab6c1d6c52,6425a44f0679c79877df00dd,641bb22edafdb9baaae4d584,60beb34989463cab6c1d6c52,6425a44f0679c79877df00dd,641bb22edafdb9baaae4d584,2,m,505,672,1280,24,720,24,0,0,1280,None,Win32,None,None,Chinese_test_tc.csv,C
None,0,None,2,下列句子中，何者「 」中的詞語意思是相同的？,None,,Mozilla,Netscape,"5.0 (Windows NT 10.0; Win64; x64) AppleWebKit/537.36 (KHTML, like Gecko) Chrome/111.0.0.0 Safari/537.36",1,None,Chinese_test_tc.csv,None,None,30-02-23,30-02-23,17:02:47,0,0,0,0,0,None,,8gztxqdy4,245191,3.8.1,2,60beb34989463cab6c1d6c52,6425a44f0679c79877df00dd,641bb22edafdb9baaae4d584,60beb34989463cab6c1d6c52,6425a44f0679c79877df00dd,641bb22edafdb9baaae4d584,1,m,373,672,1280,24,720,24,0,0,1280,None,Win32,None,None,Chinese_test_tc.csv,C
None,2,None,20,下列文句「 」中的量詞，何者使用是適當的？,None,,Mozilla,Netscape,"5.0 (Windows NT 10.0; Win64; x64) AppleWebKit/537.36 (KHTML, like Gecko) Chrome/111.0.0.0 Safari/537.36",0,None,Chinese_test_tc.csv,None,None,30-02-23,30-02-23,17:02:47,0,0,0,0,0,None,,8gztxqdy4,245191,3.8.1,2,60beb34989463cab6c1d6c52,6425a44f0679c79877df00dd,641bb22edafdb9baaae4d584,60beb34989463cab6c1d6c52,6425a44f0679c79877df00dd,641bb22edafdb9baaae4d584,3,m,687,672,1280,24,720,24,0,0,1280,None,Win32,None,None,Chinese_test_tc.csv,C
None,1,None,11,下列各組句子的意思，何者可以用來說明友誼的重要？,None,,Mozilla,Netscape,"5.0 (Windows NT 10.0; Win64; x64) AppleWebKit/537.36 (KHTML, like Gecko) Chrome/111.0.0.0 Safari/537.36",0,None,Chinese_test_tc.csv,None,None,30-02-23,30-02-23,17:02:47,0,0,0,0,0,None,,8gztxqdy4,245191,3.8.1,2,60beb34989463cab6c1d6c52,6425a44f0679c79877df00dd,641bb22edafdb9baaae4d584,60beb34989463cab6c1d6c52,6425a44f0679c79877df00dd,641bb22edafdb9baaae4d584,2,m,552,672,1280,24,720,24,0,0,1280,None,Win32,None,None,Chinese_test_tc.csv,C
None,1,None,10,下列文句「 」中的詞語，何者可以用（ ）的詞語替代？,None,,Mozilla,Netscape,"5.0 (Windows NT 10.0; Win64; x64) AppleWebKit/537.36 (KHTML, like Gecko) Chrome/111.0.0.0 Safari/537.36",0,None,Chinese_test_tc.csv,None,None,30-02-23,30-02-23,17:02:47,0,0,0,0,0,None,,8gztxqdy4,245191,3.8.1,2,60beb34989463cab6c1d6c52,6425a44f0679c79877df00dd,641bb22edafdb9baaae4d584,60beb34989463cab6c1d6c52,6425a44f0679c79877df00dd,641bb22edafdb9baaae4d584,1,m,590,672,1280,24,720,24,0,0,1280,None,Win32,None,None,Chinese_test_tc.csv,C
None,0,None,1,下列各組「 」內詞語意義，何者前後相同？,None,,Mozilla,Netscape,"5.0 (Windows NT 10.0; Win64; x64) AppleWebKit/537.36 (KHTML, like Gecko) Chrome/111.0.0.0 Safari/537.36",0,None,Chinese_test_tc.csv,None,None,30-02-23,30-02-23,17:02:47,0,0,0,0,0,None,,8gztxqdy4,245191,3.8.1,2,60beb34989463cab6c1d6c52,6425a44f0679c79877df00dd,641bb22edafdb9baaae4d584,60beb34989463cab6c1d6c52,6425a44f0679c79877df00dd,641bb22edafdb9baaae4d584,4,m,908,672,1280,24,720,24,0,0,1280,None,Win32,None,None,Chinese_test_tc.csv,C
None,None,None,None,None,None,None,Mozilla,Netscape,"5.0 (Windows NT 10.0; Win64; x64) AppleWebKit/537.36 (KHTML, like Gecko) Chrome/111.0.0.0 Safari/537.36",undefined,None,None,None,None,30-02-23,30-02-23,16:18:13,0,0,0,0,0,None,None,88j714y11,245247,3.8.1,None,63473ade158d7dffd55716be,6425a82effc28498eb924ac0,641bb22edafdb9baaae4d584,63473ade158d7dffd55716be,6425a82effc28498eb924ac0,641bb22edafdb9baaae4d584,a,m,4446,912,1707,24,960,24,0,0,1707,None,Win32,None,None,None,consent
None,None,None,None,請問您的性別？<br/>Your gender?<br/>輸入對應選項的號碼表達您的回答<br>Please select your best option.,None,,Mozilla,Netscape,"5.0 (Windows NT 10.0; Win64; x64) AppleWebKit/537.36 (KHTML, like Gecko) Chrome/111.0.0.0 Safari/537.36",undefined,None,None,None,None,30-02-23,30-02-23,16:18:13,0,0,0,0,0,None,2,88j714y11,245247,3.8.1,,63473ade158d7dffd55716be,6425a82effc28498eb924ac0,641bb22edafdb9baaae4d584,63473ade158d7dffd55716be,6425a82effc28498eb924ac0,641bb22edafdb9baaae4d584,2,m,6731,912,1707,24,960,24,0,0,1707,None,Win32,None,None,None,Pre_survey
None,None,None,None,請問您的性別？<br/>Your gender?<br/>輸入對應選項的號碼表達您的回答<br>Please select your best option.,None,,Mozilla,Netscape,"5.0 (Windows NT 10.0; Win64; x64) AppleWebKit/537.36 (KHTML, like Gecko) Chrome/111.0.0.0 Safari/537.36",undefined,None,None,None,None,30-02-23,30-02-23,16:18:13,0,0,0,0,0,None,2,88j714y11,245247,3.8.1,,63473ade158d7dffd55716be,6425a82effc28498eb924ac0,641bb22edafdb9baaae4d584,63473ade158d7dffd55716be,6425a82effc28498eb924ac0,641bb22edafdb9baaae4d584,enter,m,3300,912,1707,24,960,24,0,0,1707,None,Win32,None,None,None,Pre_survey
None,None,None,None,請輸入您的出生西元年4位數字<br />Your birth year?<br />例如: 出生年月日是 2000/1/1<br />If your birthday is 2000/1/1<br />請輸入: 2000<br />Input: 2000,None,2,Mozilla,Netscape,"5.0 (Windows NT 10.0; Win64; x64) AppleWebKit/537.36 (KHTML, like Gecko) Chrome/111.0.0.0 Safari/537.36",undefined,None,None,None,None,30-02-23,30-02-23,16:18:13,0,0,0,0,0,None,,88j714y11,245247,3.8.1,,63473ade158d7dffd55716be,6425a82effc28498eb924ac0,641bb22edafdb9baaae4d584,63473ade158d7dffd55716be,6425a82effc28498eb924ac0,641bb22edafdb9baaae4d584,2,m,6708,912,1707,24,960,24,0,0,1707,None,Win32,None,None,None,Pre_survey
None,None,None,None,請輸入您的出生西元年4位數字<br />Your birth year?<br />例如: 出生年月日是 2000/1/1<br />If your birthday is 2000/1/1<br />請輸入: 2000<br />Input: 2000,None,20,Mozilla,Netscape,"5.0 (Windows NT 10.0; Win64; x64) AppleWebKit/537.36 (KHTML, like Gecko) Chrome/111.0.0.0 Safari/537.36",undefined,None,None,None,None,30-02-23,30-02-23,16:18:13,0,0,0,0,0,None,,88j714y11,245247,3.8.1,,63473ade158d7dffd55716be,6425a82effc28498eb924ac0,641bb22edafdb9baaae4d584,63473ade158d7dffd55716be,6425a82effc28498eb924ac0,641bb22edafdb9baaae4d584,0,m,266,912,1707,24,960,24,0,0,1707,None,Win32,None,None,None,Pre_survey
None,None,None,None,請輸入您的出生西元年4位數字<br />Your birth year?<br />例如: 出生年月日是 2000/1/1<br />If your birthday is 2000/1/1<br />請輸入: 2000<br />Input: 2000,None,200,Mozilla,Netscape,"5.0 (Windows NT 10.0; Win64; x64) AppleWebKit/537.36 (KHTML, like Gecko) Chrome/111.0.0.0 Safari/537.36",undefined,None,None,None,None,30-02-23,30-02-23,16:18:13,0,0,0,0,0,None,,88j714y11,245247,3.8.1,,63473ade158d7dffd55716be,6425a82effc28498eb924ac0,641bb22edafdb9baaae4d584,63473ade158d7dffd55716be,6425a82effc28498eb924ac0,641bb22edafdb9baaae4d584,0,m,134,912,1707,24,960,24,0,0,1707,None,Win32,None,None,None,Pre_survey
None,None,None,None,請輸入您的出生西元年4位數字<br />Your birth year?<br />例如: 出生年月日是 2000/1/1<br />If your birthday is 2000/1/1<br />請輸入: 2000<br />Input: 2000,None,2001,Mozilla,Netscape,"5.0 (Windows NT 10.0; Win64; x64) AppleWebKit/537.36 (KHTML, like Gecko) Chrome/111.0.0.0 Safari/537.36",undefined,None,None,None,None,30-02-23,30-02-23,16:18:13,0,0,0,0,0,None,,88j714y11,245247,3.8.1,,63473ade158d7dffd55716be,6425a82effc28498eb924ac0,641bb22edafdb9baaae4d584,63473ade158d7dffd55716be,6425a82effc28498eb924ac0,641bb22edafdb9baaae4d584,1,m,181,912,1707,24,960,24,0,0,1707,None,Win32,None,None,None,Pre_survey
None,None,None,None,請輸入您的出生西元年4位數字<br />Your birth year?<br />例如: 出生年月日是 2000/1/1<br />If your birthday is 2000/1/1<br />請輸入: 2000<br />Input: 2000,None,2001,Mozilla,Netscape,"5.0 (Windows NT 10.0; Win64; x64) AppleWebKit/537.36 (KHTML, like Gecko) Chrome/111.0.0.0 Safari/537.36",undefined,None,None,None,None,30-02-23,30-02-23,16:18:13,0,0,0,0,0,None,,88j714y11,245247,3.8.1,,63473ade158d7dffd55716be,6425a82effc28498eb924ac0,641bb22edafdb9baaae4d584,63473ade158d7dffd55716be,6425a82effc28498eb924ac0,641bb22edafdb9baaae4d584,enter,m,828,912,1707,24,960,24,0,0,1707,None,Win32,None,None,None,Pre_survey
None,None,None,None,請問你的母語是中文還是英文？<br/>Which is your native language? English or Chinese?<br/>輸入對應選項的號碼表達您的回答<br>Please select your best option.,None,,Mozilla,Netscape,"5.0 (Windows NT 10.0; Win64; x64) AppleWebKit/537.36 (KHTML, like Gecko) Chrome/111.0.0.0 Safari/537.36",undefined,None,None,None,None,30-02-23,30-02-23,16:18:13,0,0,0,0,0,None,,88j714y11,245247,3.8.1,2,63473ade158d7dffd55716be,6425a82effc28498eb924ac0,641bb22edafdb9baaae4d584,63473ade158d7dffd55716be,6425a82effc28498eb924ac0,641bb22edafdb9baaae4d584,2,m,2831,912,1707,24,960,24,0,0,1707,None,Win32,None,None,None,Pre_survey
None,None,None,None,請問你的母語是中文還是英文？<br/>Which is your native language? English or Chinese?<br/>輸入對應選項的號碼表達您的回答<br>Please select your best option.,None,,Mozilla,Netscape,"5.0 (Windows NT 10.0; Win64; x64) AppleWebKit/537.36 (KHTML, like Gecko) Chrome/111.0.0.0 Safari/537.36",undefined,None,None,None,None,30-02-23,30-02-23,16:18:13,0,0,0,0,0,None,,88j714y11,245247,3.8.1,2,63473ade158d7dffd55716be,6425a82effc28498eb924ac0,641bb22edafdb9baaae4d584,63473ade158d7dffd55716be,6425a82effc28498eb924ac0,641bb22edafdb9baaae4d584,enter,m,1236,912,1707,24,960,24,0,0,1707,None,Win32,None,None,None,Pre_survey
None,0,None,3,Elementary school students don’t have as _______ homework as junior high students do.,None,,Mozilla,Netscape,"5.0 (Windows NT 10.0; Win64; x64) AppleWebKit/537.36 (KHTML, like Gecko) Chrome/111.0.0.0 Safari/537.36",1,None,Chinese_test_tc.csv,None,None,30-02-23,30-02-23,16:18:13,0,0,0,0,0,None,,88j714y11,245247,3.8.1,2,63473ade158d7dffd55716be,6425a82effc28498eb924ac0,641bb22edafdb9baaae4d584,63473ade158d7dffd55716be,6425a82effc28498eb924ac0,641bb22edafdb9baaae4d584,4,m,5784,912,1707,24,960,24,0,0,1707,None,Win32,None,None,English_test.csv,E
None,0,None,1,"Both of those horses live on Jack’s farm, but _______ on the left isn’t his.",None,,Mozilla,Netscape,"5.0 (Windows NT 10.0; Win64; x64) AppleWebKit/537.36 (KHTML, like Gecko) Chrome/111.0.0.0 Safari/537.36",1,None,Chinese_test_tc.csv,None,None,30-02-23,30-02-23,16:18:13,0,0,0,0,0,None,,88j714y11,245247,3.8.1,2,63473ade158d7dffd55716be,6425a82effc28498eb924ac0,641bb22edafdb9baaae4d584,63473ade158d7dffd55716be,6425a82effc28498eb924ac0,641bb22edafdb9baaae4d584,2,m,6244,912,1707,24,960,24,0,0,1707,None,Win32,None,None,English_test.csv,E
None,2,None,19,The current economic recession is threatening the ______ of many people in the country.,None,,Mozilla,Netscape,"5.0 (Windows NT 10.0; Win64; x64) AppleWebKit/537.36 (KHTML, like Gecko) Chrome/111.0.0.0 Safari/537.36",1,None,Chinese_test_tc.csv,None,None,30-02-23,30-02-23,16:18:13,0,0,0,0,0,None,,88j714y11,245247,3.8.1,2,63473ade158d7dffd55716be,6425a82effc28498eb924ac0,641bb22edafdb9baaae4d584,63473ade158d7dffd55716be,6425a82effc28498eb924ac0,641bb22edafdb9baaae4d584,3,m,4798,912,1707,24,960,24,0,0,1707,None,Win32,None,None,English_test.csv,E
None,0,None,7,Please separate your garbage and _______ it in the appropriate containers.,None,,Mozilla,Netscape,"5.0 (Windows NT 10.0; Win64; x64) AppleWebKit/537.36 (KHTML, like Gecko) Chrome/111.0.0.0 Safari/537.36",1,None,Chinese_test_tc.csv,None,None,30-02-23,30-02-23,16:18:13,0,0,0,0,0,None,,88j714y11,245247,3.8.1,2,63473ade158d7dffd55716be,6425a82effc28498eb924ac0,641bb22edafdb9baaae4d584,63473ade158d7dffd55716be,6425a82effc28498eb924ac0,641bb22edafdb9baaae4d584,1,m,3612,912,1707,24,960,24,0,0,1707,None,Win32,None,None,English_test.csv,E
None,0,None,4,"Mom, Johnny’s mother doesn’t have enough chairs for her dinner guests.She wants to <br/>borrow one of _______.",None,,Mozilla,Netscape,"5.0 (Windows NT 10.0; Win64; x64) AppleWebKit/537.36 (KHTML, like Gecko) Chrome/111.0.0.0 Safari/537.36",1,None,Chinese_test_tc.csv,None,None,30-02-23,30-02-23,16:18:13,0,0,0,0,0,None,,88j714y11,245247,3.8.1,2,63473ade158d7dffd55716be,6425a82effc28498eb924ac0,641bb22edafdb9baaae4d584,63473ade158d7dffd55716be,6425a82effc28498eb924ac0,641bb22edafdb9baaae4d584,1,m,6482,912,1707,24,960,24,0,0,1707,None,Win32,None,None,English_test.csv,E
None,0,None,9,Writing letters _______ not as difficult as you think.,None,,Mozilla,Netscape,"5.0 (Windows NT 10.0; Win64; x64) AppleWebKit/537.36 (KHTML, like Gecko) Chrome/111.0.0.0 Safari/537.36",1,None,Chinese_test_tc.csv,None,None,30-02-23,30-02-23,16:18:13,0,0,0,0,0,None,,88j714y11,245247,3.8.1,2,63473ade158d7dffd55716be,6425a82effc28498eb924ac0,641bb22edafdb9baaae4d584,63473ade158d7dffd55716be,6425a82effc28498eb924ac0,641bb22edafdb9baaae4d584,4,m,4874,912,1707,24,960,24,0,0,1707,None,Win32,None,None,English_test.csv,E
None,2,None,20,______ that something like this would happen to me.,None,,Mozilla,Netscape,"5.0 (Windows NT 10.0; Win64; x64) AppleWebKit/537.36 (KHTML, like Gecko) Chrome/111.0.0.0 Safari/537.36",1,None,Chinese_test_tc.csv,None,None,30-02-23,30-02-23,16:18:13,0,0,0,0,0,None,,88j714y11,245247,3.8.1,2,63473ade158d7dffd55716be,6425a82effc28498eb924ac0,641bb22edafdb9baaae4d584,63473ade158d7dffd55716be,6425a82effc28498eb924ac0,641bb22edafdb9baaae4d584,4,m,9207,912,1707,24,960,24,0,0,1707,None,Win32,None,None,English_test.csv,E
None,0,None,8,The boys are in school every day until four o’clock in the afternoon. After that they <br/>_______ an hour playing baseball.,None,,Mozilla,Netscape,"5.0 (Windows NT 10.0; Win64; x64) AppleWebKit/537.36 (KHTML, like Gecko) Chrome/111.0.0.0 Safari/537.36",1,None,Chinese_test_tc.csv,None,None,30-02-23,30-02-23,16:18:13,0,0,0,0,0,None,,88j714y11,245247,3.8.1,2,63473ade158d7dffd55716be,6425a82effc28498eb924ac0,641bb22edafdb9baaae4d584,63473ade158d7dffd55716be,6425a82effc28498eb924ac0,641bb22edafdb9baaae4d584,4,m,6300,912,1707,24,960,24,0,0,1707,None,Win32,None,None,English_test.csv,E
None,0,None,2,The student raced out of the classroom and bumped _______ a teacher who was carrying <br/>a cup of coffee.,None,,Mozilla,Netscape,"5.0 (Windows NT 10.0; Win64; x64) AppleWebKit/537.36 (KHTML, like Gecko) Chrome/111.0.0.0 Safari/537.36",1,None,Chinese_test_tc.csv,None,None,30-02-23,30-02-23,16:18:13,0,0,0,0,0,None,,88j714y11,245247,3.8.1,2,63473ade158d7dffd55716be,6425a82effc28498eb924ac0,641bb22edafdb9baaae4d584,63473ade158d7dffd55716be,6425a82effc28498eb924ac0,641bb22edafdb9baaae4d584,1,m,15528,912,1707,24,960,24,0,0,1707,None,Win32,None,None,English_test.csv,E
None,0,None,5,"The bus was full, but Judy saw an empty seat next to an old woman.“_______ I sit here?” <br/>she asked her.",None,,Mozilla,Netscape,"5.0 (Windows NT 10.0; Win64; x64) AppleWebKit/537.36 (KHTML, like Gecko) Chrome/111.0.0.0 Safari/537.36",1,None,Chinese_test_tc.csv,None,None,30-02-23,30-02-23,16:18:13,0,0,0,0,0,None,,88j714y11,245247,3.8.1,2,63473ade158d7dffd55716be,6425a82effc28498eb924ac0,641bb22edafdb9baaae4d584,63473ade158d7dffd55716be,6425a82effc28498eb924ac0,641bb22edafdb9baaae4d584,1,m,4770,912,1707,24,960,24,0,0,1707,None,Win32,None,None,English_test.csv,E
None,1,None,14,"Depending on the _______ he is in, the boss will either thank you for your suggestion <br/>or fire you for criticizing his plan.",None,,Mozilla,Netscape,"5.0 (Windows NT 10.0; Win64; x64) AppleWebKit/537.36 (KHTML, like Gecko) Chrome/111.0.0.0 Safari/537.36",1,None,Chinese_test_tc.csv,None,None,30-02-23,30-02-23,16:18:13,0,0,0,0,0,None,,88j714y11,245247,3.8.1,2,63473ade158d7dffd55716be,6425a82effc28498eb924ac0,641bb22edafdb9baaae4d584,63473ade158d7dffd55716be,6425a82effc28498eb924ac0,641bb22edafdb9baaae4d584,1,m,4687,912,1707,24,960,24,0,0,1707,None,Win32,None,None,English_test.csv,E
None,1,None,13,New computer technology has _______ changed the way Hollywood movies are made.,None,,Mozilla,Netscape,"5.0 (Windows NT 10.0; Win64; x64) AppleWebKit/537.36 (KHTML, like Gecko) Chrome/111.0.0.0 Safari/537.36",1,None,Chinese_test_tc.csv,None,None,30-02-23,30-02-23,16:18:13,0,0,0,0,0,None,,88j714y11,245247,3.8.1,2,63473ade158d7dffd55716be,6425a82effc28498eb924ac0,641bb22edafdb9baaae4d584,63473ade158d7dffd55716be,6425a82effc28498eb924ac0,641bb22edafdb9baaae4d584,4,m,8006,912,1707,24,960,24,0,0,1707,None,Win32,None,None,English_test.csv,E
None,0,None,6,Sara was _______ because her grandmother had put more money in her brother’s red <br/>envelope.,None,,Mozilla,Netscape,"5.0 (Windows NT 10.0; Win64; x64) AppleWebKit/537.36 (KHTML, like Gecko) Chrome/111.0.0.0 Safari/537.36",1,None,Chinese_test_tc.csv,None,None,30-02-23,30-02-23,16:18:13,0,0,0,0,0,None,,88j714y11,245247,3.8.1,2,63473ade158d7dffd55716be,6425a82effc28498eb924ac0,641bb22edafdb9baaae4d584,63473ade158d7dffd55716be,6425a82effc28498eb924ac0,641bb22edafdb9baaae4d584,3,m,4427,912,1707,24,960,24,0,0,1707,None,Win32,None,None,English_test.csv,E
None,1,None,16,This proposal for a new high speed train _______ because the cost is too high.,None,,Mozilla,Netscape,"5.0 (Windows NT 10.0; Win64; x64) AppleWebKit/537.36 (KHTML, like Gecko) Chrome/111.0.0.0 Safari/537.36",0,None,Chinese_test_tc.csv,None,None,30-02-23,30-02-23,16:18:13,0,0,0,0,0,None,,88j714y11,245247,3.8.1,2,63473ade158d7dffd55716be,6425a82effc28498eb924ac0,641bb22edafdb9baaae4d584,63473ade158d7dffd55716be,6425a82effc28498eb924ac0,641bb22edafdb9baaae4d584,1,m,7901,912,1707,24,960,24,0,0,1707,None,Win32,None,None,English_test.csv,E
None,2,None,18,Some of Curt Wilder’s books have been widely read ______ others have remained <br/>relatively unknown.,None,,Mozilla,Netscape,"5.0 (Windows NT 10.0; Win64; x64) AppleWebKit/537.36 (KHTML, like Gecko) Chrome/111.0.0.0 Safari/537.36",1,None,Chinese_test_tc.csv,None,None,30-02-23,30-02-23,16:18:13,0,0,0,0,0,None,,88j714y11,245247,3.8.1,2,63473ade158d7dffd55716be,6425a82effc28498eb924ac0,641bb22edafdb9baaae4d584,63473ade158d7dffd55716be,6425a82effc28498eb924ac0,641bb22edafdb9baaae4d584,4,m,5459,912,1707,24,960,24,0,0,1707,None,Win32,None,None,English_test.csv,E
None,1,None,11,Flight 305 _______ depart at 3:30 p.m. but was cancelled because of a mechanical<br/>problem in one of the engines.,None,,Mozilla,Netscape,"5.0 (Windows NT 10.0; Win64; x64) AppleWebKit/537.36 (KHTML, like Gecko) Chrome/111.0.0.0 Safari/537.36",1,None,Chinese_test_tc.csv,None,None,30-02-23,30-02-23,16:18:13,0,0,0,0,0,None,,88j714y11,245247,3.8.1,2,63473ade158d7dffd55716be,6425a82effc28498eb924ac0,641bb22edafdb9baaae4d584,63473ade158d7dffd55716be,6425a82effc28498eb924ac0,641bb22edafdb9baaae4d584,3,m,6050,912,1707,24,960,24,0,0,1707,None,Win32,None,None,English_test.csv,E
None,1,None,10,Defensive drivers _______ their driving mirrors frequently so that they know at all <br/>times if there are other vehicles or people nearby.,None,,Mozilla,Netscape,"5.0 (Windows NT 10.0; Win64; x64) AppleWebKit/537.36 (KHTML, like Gecko) Chrome/111.0.0.0 Safari/537.36",1,None,Chinese_test_tc.csv,None,None,30-02-23,30-02-23,16:18:13,0,0,0,0,0,None,,88j714y11,245247,3.8.1,2,63473ade158d7dffd55716be,6425a82effc28498eb924ac0,641bb22edafdb9baaae4d584,63473ade158d7dffd55716be,6425a82effc28498eb924ac0,641bb22edafdb9baaae4d584,4,m,5900,912,1707,24,960,24,0,0,1707,None,Win32,None,None,English_test.csv,E
None,1,None,12,"_______ newspaper reports, flooding in the area near the river due to the storm has <br/>been much more serious than expected.",None,,Mozilla,Netscape,"5.0 (Windows NT 10.0; Win64; x64) AppleWebKit/537.36 (KHTML, like Gecko) Chrome/111.0.0.0 Safari/537.36",1,None,Chinese_test_tc.csv,None,None,30-02-23,30-02-23,16:18:13,0,0,0,0,0,None,,88j714y11,245247,3.8.1,2,63473ade158d7dffd55716be,6425a82effc28498eb924ac0,641bb22edafdb9baaae4d584,63473ade158d7dffd55716be,6425a82effc28498eb924ac0,641bb22edafdb9baaae4d584,3,m,4671,912,1707,24,960,24,0,0,1707,None,Win32,None,None,English_test.csv,E
None,1,None,15,_______ many desirable qualities which make it a commercially very useful metal.,None,,Mozilla,Netscape,"5.0 (Windows NT 10.0; Win64; x64) AppleWebKit/537.36 (KHTML, like Gecko) Chrome/111.0.0.0 Safari/537.36",1,None,Chinese_test_tc.csv,None,None,30-02-23,30-02-23,16:18:13,0,0,0,0,0,None,,88j714y11,245247,3.8.1,2,63473ade158d7dffd55716be,6425a82effc28498eb924ac0,641bb22edafdb9baaae4d584,63473ade158d7dffd55716be,6425a82effc28498eb924ac0,641bb22edafdb9baaae4d584,1,m,5344,912,1707,24,960,24,0,0,1707,None,Win32,None,None,English_test.csv,E
None,2,None,17,"To our surprise, Tina was given permission to enter the third grade, although she <br/>______ the previous grade.",None,,Mozilla,Netscape,"5.0 (Windows NT 10.0; Win64; x64) AppleWebKit/537.36 (KHTML, like Gecko) Chrome/111.0.0.0 Safari/537.36",1,None,Chinese_test_tc.csv,None,None,30-02-23,30-02-23,16:18:13,0,0,0,0,0,None,,88j714y11,245247,3.8.1,2,63473ade158d7dffd55716be,6425a82effc28498eb924ac0,641bb22edafdb9baaae4d584,63473ade158d7dffd55716be,6425a82effc28498eb924ac0,641bb22edafdb9baaae4d584,4,m,5798,912,1707,24,960,24,0,0,1707,None,Win32,None,None,English_test.csv,E
None,1,None,12,下列「 」中的語詞，何者意思前後相同？,None,,Mozilla,Netscape,"5.0 (Windows NT 10.0; Win64; x64) AppleWebKit/537.36 (KHTML, like Gecko) Chrome/111.0.0.0 Safari/537.36",1,None,Chinese_test_tc.csv,None,None,30-02-23,30-02-23,16:18:13,0,0,0,0,0,None,,88j714y11,245247,3.8.1,2,63473ade158d7dffd55716be,6425a82effc28498eb924ac0,641bb22edafdb9baaae4d584,63473ade158d7dffd55716be,6425a82effc28498eb924ac0,641bb22edafdb9baaae4d584,2,m,15083,912,1707,24,960,24,0,0,1707,None,Win32,None,None,Chinese_test_tc.csv,C
None,1,None,16,下列選項「 」中的詞語，何者前後的詞性及詞義相同？,None,,Mozilla,Netscape,"5.0 (Windows NT 10.0; Win64; x64) AppleWebKit/537.36 (KHTML, like Gecko) Chrome/111.0.0.0 Safari/537.36",0,None,Chinese_test_tc.csv,None,None,30-02-23,30-02-23,16:18:13,0,0,0,0,0,None,,88j714y11,245247,3.8.1,2,63473ade158d7dffd55716be,6425a82effc28498eb924ac0,641bb22edafdb9baaae4d584,63473ade158d7dffd55716be,6425a82effc28498eb924ac0,641bb22edafdb9baaae4d584,1,m,7336,912,1707,24,960,24,0,0,1707,None,Win32,None,None,Chinese_test_tc.csv,C
None,2,None,18,下列「 」中的詞語，何組前後意義相同？,None,,Mozilla,Netscape,"5.0 (Windows NT 10.0; Win64; x64) AppleWebKit/537.36 (KHTML, like Gecko) Chrome/111.0.0.0 Safari/537.36",0,None,Chinese_test_tc.csv,None,None,30-02-23,30-02-23,16:18:13,0,0,0,0,0,None,,88j714y11,245247,3.8.1,2,63473ade158d7dffd55716be,6425a82effc28498eb924ac0,641bb22edafdb9baaae4d584,63473ade158d7dffd55716be,6425a82effc28498eb924ac0,641bb22edafdb9baaae4d584,1,m,5832,912,1707,24,960,24,0,0,1707,None,Win32,None,None,Chinese_test_tc.csv,C
None,2,None,17,「攪拌原料時，興奮地思考著等下要怎麼去裝飾；放進烤箱後小心翼翼地__，<br/> 深怕一個疏忽就焦黑；出爐那一刻__空間的__香氣，令人不禁想要偷吃。<br/>本書就是要__您進入烘烤點心這麼一個令人幸福的甜美世界。」<br/>上述文__ 處，最適合填入下列哪一組語詞？,None,,Mozilla,Netscape,"5.0 (Windows NT 10.0; Win64; x64) AppleWebKit/537.36 (KHTML, like Gecko) Chrome/111.0.0.0 Safari/537.36",0,None,Chinese_test_tc.csv,None,None,30-02-23,30-02-23,16:18:13,0,0,0,0,0,None,,88j714y11,245247,3.8.1,2,63473ade158d7dffd55716be,6425a82effc28498eb924ac0,641bb22edafdb9baaae4d584,63473ade158d7dffd55716be,6425a82effc28498eb924ac0,641bb22edafdb9baaae4d584,3,m,3898,912,1707,24,960,24,0,0,1707,None,Win32,None,None,Chinese_test_tc.csv,C
None,0,None,7,「_確定出遊日期，眾人_七嘴八舌的開始討論細節。」<br/>_中的連接詞最適合填入下列 哪一組？,None,,Mozilla,Netscape,"5.0 (Windows NT 10.0; Win64; x64) AppleWebKit/537.36 (KHTML, like Gecko) Chrome/111.0.0.0 Safari/537.36",0,None,Chinese_test_tc.csv,None,None,30-02-23,30-02-23,16:18:13,0,0,0,0,0,None,,88j714y11,245247,3.8.1,2,63473ade158d7dffd55716be,6425a82effc28498eb924ac0,641bb22edafdb9baaae4d584,63473ade158d7dffd55716be,6425a82effc28498eb924ac0,641bb22edafdb9baaae4d584,4,m,30381,912,1707,24,960,24,0,0,1707,None,Win32,None,None,Chinese_test_tc.csv,C
None,0,None,9,下列哪個句子中的「決定」是動詞？,None,,Mozilla,Netscape,"5.0 (Windows NT 10.0; Win64; x64) AppleWebKit/537.36 (KHTML, like Gecko) Chrome/111.0.0.0 Safari/537.36",0,None,Chinese_test_tc.csv,None,None,30-02-23,30-02-23,16:18:13,0,0,0,0,0,None,,88j714y11,245247,3.8.1,2,63473ade158d7dffd55716be,6425a82effc28498eb924ac0,641bb22edafdb9baaae4d584,63473ade158d7dffd55716be,6425a82effc28498eb924ac0,641bb22edafdb9baaae4d584,3,m,5534,912,1707,24,960,24,0,0,1707,None,Win32,None,None,Chinese_test_tc.csv,C
None,0,None,6,以下句子，何者連接詞使用完全正確？,None,,Mozilla,Netscape,"5.0 (Windows NT 10.0; Win64; x64) AppleWebKit/537.36 (KHTML, like Gecko) Chrome/111.0.0.0 Safari/537.36",0,None,Chinese_test_tc.csv,None,None,30-02-23,30-02-23,16:18:13,0,0,0,0,0,None,,88j714y11,245247,3.8.1,2,63473ade158d7dffd55716be,6425a82effc28498eb924ac0,641bb22edafdb9baaae4d584,63473ade158d7dffd55716be,6425a82effc28498eb924ac0,641bb22edafdb9baaae4d584,4,m,5211,912,1707,24,960,24,0,0,1707,None,Win32,None,None,Chinese_test_tc.csv,C
None,1,None,14,「參加運動競賽，__有光明的失敗，__要不榮譽的成功。」<br/>__中要填上下列哪一 組的連接詞最適切？,None,,Mozilla,Netscape,"5.0 (Windows NT 10.0; Win64; x64) AppleWebKit/537.36 (KHTML, like Gecko) Chrome/111.0.0.0 Safari/537.36",0,None,Chinese_test_tc.csv,None,None,30-02-23,30-02-23,16:18:13,0,0,0,0,0,None,,88j714y11,245247,3.8.1,2,63473ade158d7dffd55716be,6425a82effc28498eb924ac0,641bb22edafdb9baaae4d584,63473ade158d7dffd55716be,6425a82effc28498eb924ac0,641bb22edafdb9baaae4d584,1,m,7635,912,1707,24,960,24,0,0,1707,None,Win32,None,None,Chinese_test_tc.csv,C
None,0,None,2,下列句子中，何者「 」中的詞語意思是相同的？,None,,Mozilla,Netscape,"5.0 (Windows NT 10.0; Win64; x64) AppleWebKit/537.36 (KHTML, like Gecko) Chrome/111.0.0.0 Safari/537.36",0,None,Chinese_test_tc.csv,None,None,30-02-23,30-02-23,16:18:13,0,0,0,0,0,None,,88j714y11,245247,3.8.1,2,63473ade158d7dffd55716be,6425a82effc28498eb924ac0,641bb22edafdb9baaae4d584,63473ade158d7dffd55716be,6425a82effc28498eb924ac0,641bb22edafdb9baaae4d584,4,m,2090,912,1707,24,960,24,0,0,1707,None,Win32,None,None,Chinese_test_tc.csv,C
None,2,None,20,下列文句「 」中的量詞，何者使用是適當的？,None,,Mozilla,Netscape,"5.0 (Windows NT 10.0; Win64; x64) AppleWebKit/537.36 (KHTML, like Gecko) Chrome/111.0.0.0 Safari/537.36",0,None,Chinese_test_tc.csv,None,None,30-02-23,30-02-23,16:18:13,0,0,0,0,0,None,,88j714y11,245247,3.8.1,2,63473ade158d7dffd55716be,6425a82effc28498eb924ac0,641bb22edafdb9baaae4d584,63473ade158d7dffd55716be,6425a82effc28498eb924ac0,641bb22edafdb9baaae4d584,4,m,8001,912,1707,24,960,24,0,0,1707,None,Win32,None,None,Chinese_test_tc.csv,C
None,0,None,3,「當哥哥寫完功課時，媽媽說：_________」<br/>下面四個選項中的哪句話，最不可能是媽媽的說話內容？,None,,Mozilla,Netscape,"5.0 (Windows NT 10.0; Win64; x64) AppleWebKit/537.36 (KHTML, like Gecko) Chrome/111.0.0.0 Safari/537.36",1,None,Chinese_test_tc.csv,None,None,30-02-23,30-02-23,16:18:13,0,0,0,0,0,None,,88j714y11,245247,3.8.1,2,63473ade158d7dffd55716be,6425a82effc28498eb924ac0,641bb22edafdb9baaae4d584,63473ade158d7dffd55716be,6425a82effc28498eb924ac0,641bb22edafdb9baaae4d584,2,m,1833,912,1707,24,960,24,0,0,1707,None,Win32,None,None,Chinese_test_tc.csv,C
None,1,None,11,下列各組句子的意思，何者可以用來說明友誼的重要？,None,,Mozilla,Netscape,"5.0 (Windows NT 10.0; Win64; x64) AppleWebKit/537.36 (KHTML, like Gecko) Chrome/111.0.0.0 Safari/537.36",0,None,Chinese_test_tc.csv,None,None,30-02-23,30-02-23,16:18:13,0,0,0,0,0,None,,88j714y11,245247,3.8.1,2,63473ade158d7dffd55716be,6425a82effc28498eb924ac0,641bb22edafdb9baaae4d584,63473ade158d7dffd55716be,6425a82effc28498eb924ac0,641bb22edafdb9baaae4d584,2,m,1541,912,1707,24,960,24,0,0,1707,None,Win32,None,None,Chinese_test_tc.csv,C
None,0,None,8,我絕對不是這個「意思」，你不要誤會。<br/>上句「 」中的詞語意思和下面哪一個相同？,None,,Mozilla,Netscape,"5.0 (Windows NT 10.0; Win64; x64) AppleWebKit/537.36 (KHTML, like Gecko) Chrome/111.0.0.0 Safari/537.36",0,None,Chinese_test_tc.csv,None,None,30-02-23,30-02-23,16:18:13,0,0,0,0,0,None,,88j714y11,245247,3.8.1,2,63473ade158d7dffd55716be,6425a82effc28498eb924ac0,641bb22edafdb9baaae4d584,63473ade158d7dffd55716be,6425a82effc28498eb924ac0,641bb22edafdb9baaae4d584,1,m,6064,912,1707,24,960,24,0,0,1707,None,Win32,None,None,Chinese_test_tc.csv,C
None,0,None,4,阿英對小華說：「每次出事你都不自己想辦法解決，這次我決定不幫你了！」<br/>從阿英的話中可以推論：,None,,Mozilla,Netscape,"5.0 (Windows NT 10.0; Win64; x64) AppleWebKit/537.36 (KHTML, like Gecko) Chrome/111.0.0.0 Safari/537.36",1,None,Chinese_test_tc.csv,None,None,30-02-23,30-02-23,16:18:13,0,0,0,0,0,None,,88j714y11,245247,3.8.1,2,63473ade158d7dffd55716be,6425a82effc28498eb924ac0,641bb22edafdb9baaae4d584,63473ade158d7dffd55716be,6425a82effc28498eb924ac0,641bb22edafdb9baaae4d584,1,m,2322,912,1707,24,960,24,0,0,1707,None,Win32,None,None,Chinese_test_tc.csv,C
None,1,None,15,以下句子，何者連接詞使用完全正確？,None,,Mozilla,Netscape,"5.0 (Windows NT 10.0; Win64; x64) AppleWebKit/537.36 (KHTML, like Gecko) Chrome/111.0.0.0 Safari/537.36",0,None,Chinese_test_tc.csv,None,None,30-02-23,30-02-23,16:18:13,0,0,0,0,0,None,,88j714y11,245247,3.8.1,2,63473ade158d7dffd55716be,6425a82effc28498eb924ac0,641bb22edafdb9baaae4d584,63473ade158d7dffd55716be,6425a82effc28498eb924ac0,641bb22edafdb9baaae4d584,4,m,1254,912,1707,24,960,24,0,0,1707,None,Win32,None,None,Chinese_test_tc.csv,C
None,1,None,10,下列文句「 」中的詞語，何者可以用（ ）的詞語替代？,None,,Mozilla,Netscape,"5.0 (Windows NT 10.0; Win64; x64) AppleWebKit/537.36 (KHTML, like Gecko) Chrome/111.0.0.0 Safari/537.36",0,None,Chinese_test_tc.csv,None,None,30-02-23,30-02-23,16:18:13,0,0,0,0,0,None,,88j714y11,245247,3.8.1,2,63473ade158d7dffd55716be,6425a82effc28498eb924ac0,641bb22edafdb9baaae4d584,63473ade158d7dffd55716be,6425a82effc28498eb924ac0,641bb22edafdb9baaae4d584,1,m,2590,912,1707,24,960,24,0,0,1707,None,Win32,None,None,Chinese_test_tc.csv,C
None,0,None,5,下列連接詞，何者使用最適切？,None,,Mozilla,Netscape,"5.0 (Windows NT 10.0; Win64; x64) AppleWebKit/537.36 (KHTML, like Gecko) Chrome/111.0.0.0 Safari/537.36",0,None,Chinese_test_tc.csv,None,None,30-02-23,30-02-23,16:18:13,0,0,0,0,0,None,,88j714y11,245247,3.8.1,2,63473ade158d7dffd55716be,6425a82effc28498eb924ac0,641bb22edafdb9baaae4d584,63473ade158d7dffd55716be,6425a82effc28498eb924ac0,641bb22edafdb9baaae4d584,2,m,644,912,1707,24,960,24,0,0,1707,None,Win32,None,None,Chinese_test_tc.csv,C
None,1,None,13,下列哪一選項前後兩句的意思相同？,None,,Mozilla,Netscape,"5.0 (Windows NT 10.0; Win64; x64) AppleWebKit/537.36 (KHTML, like Gecko) Chrome/111.0.0.0 Safari/537.36",0,None,Chinese_test_tc.csv,None,None,30-02-23,30-02-23,16:18:13,0,0,0,0,0,None,,88j714y11,245247,3.8.1,2,63473ade158d7dffd55716be,6425a82effc28498eb924ac0,641bb22edafdb9baaae4d584,63473ade158d7dffd55716be,6425a82effc28498eb924ac0,641bb22edafdb9baaae4d584,3,m,310,912,1707,24,960,24,0,0,1707,None,Win32,None,None,Chinese_test_tc.csv,C
None,2,None,19,下列「 」中的詞語，何者可以用後者代換，而不影響詞義？,None,,Mozilla,Netscape,"5.0 (Windows NT 10.0; Win64; x64) AppleWebKit/537.36 (KHTML, like Gecko) Chrome/111.0.0.0 Safari/537.36",0,None,Chinese_test_tc.csv,None,None,30-02-23,30-02-23,16:18:13,0,0,0,0,0,None,,88j714y11,245247,3.8.1,2,63473ade158d7dffd55716be,6425a82effc28498eb924ac0,641bb22edafdb9baaae4d584,63473ade158d7dffd55716be,6425a82effc28498eb924ac0,641bb22edafdb9baaae4d584,1,m,388,912,1707,24,960,24,0,0,1707,None,Win32,None,None,Chinese_test_tc.csv,C
None,0,None,1,下列各組「 」內詞語意義，何者前後相同？,None,,Mozilla,Netscape,"5.0 (Windows NT 10.0; Win64; x64) AppleWebKit/537.36 (KHTML, like Gecko) Chrome/111.0.0.0 Safari/537.36",1,None,Chinese_test_tc.csv,None,None,30-02-23,30-02-23,16:18:13,0,0,0,0,0,None,,88j714y11,245247,3.8.1,2,63473ade158d7dffd55716be,6425a82effc28498eb924ac0,641bb22edafdb9baaae4d584,63473ade158d7dffd55716be,6425a82effc28498eb924ac0,641bb22edafdb9baaae4d584,4,m,1431,912,1707,24,960,24,0,0,1707,None,Win32,None,None,Chinese_test_tc.csv,C
None,None,None,None,None,None,None,Mozilla,Netscape,"5.0 (Windows NT 10.0; Win64; x64) AppleWebKit/537.36 (KHTML, like Gecko) Chrome/111.0.0.0 Safari/537.36",undefined,None,None,None,None,30-02-23,30-02-23,17:02:08,0,0,0,0,0,None,None,8e8wwkit7,245188,3.8.1,None,60603496c9a3d83273a11297,6425a4523e44da929c1dc444,641bb22edafdb9baaae4d584,60603496c9a3d83273a11297,6425a4523e44da929c1dc444,641bb22edafdb9baaae4d584,a,m,1871,860,1440,24,900,24,0,0,1440,None,Win32,None,None,None,consent
None,None,None,None,請問您的性別？<br/>Your gender?<br/>輸入對應選項的號碼表達您的回答<br>Please select your best option.,None,,Mozilla,Netscape,"5.0 (Windows NT 10.0; Win64; x64) AppleWebKit/537.36 (KHTML, like Gecko) Chrome/111.0.0.0 Safari/537.36",undefined,None,None,None,None,30-02-23,30-02-23,17:02:08,0,0,0,0,0,None,1,8e8wwkit7,245188,3.8.1,,60603496c9a3d83273a11297,6425a4523e44da929c1dc444,641bb22edafdb9baaae4d584,60603496c9a3d83273a11297,6425a4523e44da929c1dc444,641bb22edafdb9baaae4d584,1,m,13002,860,1440,24,900,24,0,0,1440,None,Win32,None,None,None,Pre_survey
None,None,None,None,請問您的性別？<br/>Your gender?<br/>輸入對應選項的號碼表達您的回答<br>Please select your best option.,None,,Mozilla,Netscape,"5.0 (Windows NT 10.0; Win64; x64) AppleWebKit/537.36 (KHTML, like Gecko) Chrome/111.0.0.0 Safari/537.36",undefined,None,None,None,None,30-02-23,30-02-23,17:02:08,0,0,0,0,0,None,1,8e8wwkit7,245188,3.8.1,,60603496c9a3d83273a11297,6425a4523e44da929c1dc444,641bb22edafdb9baaae4d584,60603496c9a3d83273a11297,6425a4523e44da929c1dc444,641bb22edafdb9baaae4d584,enter,m,4645,860,1440,24,900,24,0,0,1440,None,Win32,None,None,None,Pre_survey
None,None,None,None,請輸入您的出生西元年4位數字<br />Your birth year?<br />例如: 出生年月日是 2000/1/1<br />If your birthday is 2000/1/1<br />請輸入: 2000<br />Input: 2000,None,1,Mozilla,Netscape,"5.0 (Windows NT 10.0; Win64; x64) AppleWebKit/537.36 (KHTML, like Gecko) Chrome/111.0.0.0 Safari/537.36",undefined,None,None,None,None,30-02-23,30-02-23,17:02:08,0,0,0,0,0,None,,8e8wwkit7,245188,3.8.1,,60603496c9a3d83273a11297,6425a4523e44da929c1dc444,641bb22edafdb9baaae4d584,60603496c9a3d83273a11297,6425a4523e44da929c1dc444,641bb22edafdb9baaae4d584,1,m,14338,860,1440,24,900,24,0,0,1440,None,Win32,None,None,None,Pre_survey
None,None,None,None,請輸入您的出生西元年4位數字<br />Your birth year?<br />例如: 出生年月日是 2000/1/1<br />If your birthday is 2000/1/1<br />請輸入: 2000<br />Input: 2000,None,19,Mozilla,Netscape,"5.0 (Windows NT 10.0; Win64; x64) AppleWebKit/537.36 (KHTML, like Gecko) Chrome/111.0.0.0 Safari/537.36",undefined,None,None,None,None,30-02-23,30-02-23,17:02:08,0,0,0,0,0,None,,8e8wwkit7,245188,3.8.1,,60603496c9a3d83273a11297,6425a4523e44da929c1dc444,641bb22edafdb9baaae4d584,60603496c9a3d83273a11297,6425a4523e44da929c1dc444,641bb22edafdb9baaae4d584,9,m,1384,860,1440,24,900,24,0,0,1440,None,Win32,None,None,None,Pre_survey
None,None,None,None,請輸入您的出生西元年4位數字<br />Your birth year?<br />例如: 出生年月日是 2000/1/1<br />If your birthday is 2000/1/1<br />請輸入: 2000<br />Input: 2000,None,199,Mozilla,Netscape,"5.0 (Windows NT 10.0; Win64; x64) AppleWebKit/537.36 (KHTML, like Gecko) Chrome/111.0.0.0 Safari/537.36",undefined,None,None,None,None,30-02-23,30-02-23,17:02:08,0,0,0,0,0,None,,8e8wwkit7,245188,3.8.1,,60603496c9a3d83273a11297,6425a4523e44da929c1dc444,641bb22edafdb9baaae4d584,60603496c9a3d83273a11297,6425a4523e44da929c1dc444,641bb22edafdb9baaae4d584,9,m,164,860,1440,24,900,24,0,0,1440,None,Win32,None,None,None,Pre_survey
None,None,None,None,請輸入您的出生西元年4位數字<br />Your birth year?<br />例如: 出生年月日是 2000/1/1<br />If your birthday is 2000/1/1<br />請輸入: 2000<br />Input: 2000,None,1994,Mozilla,Netscape,"5.0 (Windows NT 10.0; Win64; x64) AppleWebKit/537.36 (KHTML, like Gecko) Chrome/111.0.0.0 Safari/537.36",undefined,None,None,None,None,30-02-23,30-02-23,17:02:08,0,0,0,0,0,None,,8e8wwkit7,245188,3.8.1,,60603496c9a3d83273a11297,6425a4523e44da929c1dc444,641bb22edafdb9baaae4d584,60603496c9a3d83273a11297,6425a4523e44da929c1dc444,641bb22edafdb9baaae4d584,4,m,1149,860,1440,24,900,24,0,0,1440,None,Win32,None,None,None,Pre_survey
None,None,None,None,請輸入您的出生西元年4位數字<br />Your birth year?<br />例如: 出生年月日是 2000/1/1<br />If your birthday is 2000/1/1<br />請輸入: 2000<br />Input: 2000,None,1994,Mozilla,Netscape,"5.0 (Windows NT 10.0; Win64; x64) AppleWebKit/537.36 (KHTML, like Gecko) Chrome/111.0.0.0 Safari/537.36",undefined,None,None,None,None,30-02-23,30-02-23,17:02:08,0,0,0,0,0,None,,8e8wwkit7,245188,3.8.1,,60603496c9a3d83273a11297,6425a4523e44da929c1dc444,641bb22edafdb9baaae4d584,60603496c9a3d83273a11297,6425a4523e44da929c1dc444,641bb22edafdb9baaae4d584,enter,m,146,860,1440,24,900,24,0,0,1440,None,Win32,None,None,None,Pre_survey
None,None,None,None,請問你的母語是中文還是英文？<br/>Which is your native language? English or Chinese?<br/>輸入對應選項的號碼表達您的回答<br>Please select your best option.,None,,Mozilla,Netscape,"5.0 (Windows NT 10.0; Win64; x64) AppleWebKit/537.36 (KHTML, like Gecko) Chrome/111.0.0.0 Safari/537.36",undefined,None,None,None,None,30-02-23,30-02-23,17:02:08,0,0,0,0,0,None,,8e8wwkit7,245188,3.8.1,1,60603496c9a3d83273a11297,6425a4523e44da929c1dc444,641bb22edafdb9baaae4d584,60603496c9a3d83273a11297,6425a4523e44da929c1dc444,641bb22edafdb9baaae4d584,1,m,13209,860,1440,24,900,24,0,0,1440,None,Win32,None,None,None,Pre_survey
None,None,None,None,請問你的母語是中文還是英文？<br/>Which is your native language? English or Chinese?<br/>輸入對應選項的號碼表達您的回答<br>Please select your best option.,None,,Mozilla,Netscape,"5.0 (Windows NT 10.0; Win64; x64) AppleWebKit/537.36 (KHTML, like Gecko) Chrome/111.0.0.0 Safari/537.36",undefined,None,None,None,None,30-02-23,30-02-23,17:02:08,0,0,0,0,0,None,,8e8wwkit7,245188,3.8.1,1,60603496c9a3d83273a11297,6425a4523e44da929c1dc444,641bb22edafdb9baaae4d584,60603496c9a3d83273a11297,6425a4523e44da929c1dc444,641bb22edafdb9baaae4d584,enter,m,779,860,1440,24,900,24,0,0,1440,None,Win32,None,None,None,Pre_survey
None,2,None,20,______ that something like this would happen to me.,None,,Mozilla,Netscape,"5.0 (Windows NT 10.0; Win64; x64) AppleWebKit/537.36 (KHTML, like Gecko) Chrome/111.0.0.0 Safari/537.36",1,None,Chinese_test_tc.csv,None,None,30-02-23,30-02-23,17:02:08,0,0,0,0,0,None,,8e8wwkit7,245188,3.8.1,1,60603496c9a3d83273a11297,6425a4523e44da929c1dc444,641bb22edafdb9baaae4d584,60603496c9a3d83273a11297,6425a4523e44da929c1dc444,641bb22edafdb9baaae4d584,1,m,20326,860,1440,24,900,24,0,0,1440,None,Win32,None,None,English_test.csv,E
None,1,None,10,Defensive drivers _______ their driving mirrors frequently so that they know at all <br/>times if there are other vehicles or people nearby.,None,,Mozilla,Netscape,"5.0 (Windows NT 10.0; Win64; x64) AppleWebKit/537.36 (KHTML, like Gecko) Chrome/111.0.0.0 Safari/537.36",0,None,Chinese_test_tc.csv,None,None,30-02-23,30-02-23,17:02:08,0,0,0,0,0,None,,8e8wwkit7,245188,3.8.1,1,60603496c9a3d83273a11297,6425a4523e44da929c1dc444,641bb22edafdb9baaae4d584,60603496c9a3d83273a11297,6425a4523e44da929c1dc444,641bb22edafdb9baaae4d584,2,m,13075,860,1440,24,900,24,0,0,1440,None,Win32,None,None,English_test.csv,E
None,0,None,6,Sara was _______ because her grandmother had put more money in her brother’s red <br/>envelope.,None,,Mozilla,Netscape,"5.0 (Windows NT 10.0; Win64; x64) AppleWebKit/537.36 (KHTML, like Gecko) Chrome/111.0.0.0 Safari/537.36",0,None,Chinese_test_tc.csv,None,None,30-02-23,30-02-23,17:02:08,0,0,0,0,0,None,,8e8wwkit7,245188,3.8.1,1,60603496c9a3d83273a11297,6425a4523e44da929c1dc444,641bb22edafdb9baaae4d584,60603496c9a3d83273a11297,6425a4523e44da929c1dc444,641bb22edafdb9baaae4d584,2,m,213,860,1440,24,900,24,0,0,1440,None,Win32,None,None,English_test.csv,E
None,0,None,5,"The bus was full, but Judy saw an empty seat next to an old woman.“_______ I sit here?” <br/>she asked her.",None,,Mozilla,Netscape,"5.0 (Windows NT 10.0; Win64; x64) AppleWebKit/537.36 (KHTML, like Gecko) Chrome/111.0.0.0 Safari/537.36",1,None,Chinese_test_tc.csv,None,None,30-02-23,30-02-23,17:02:08,0,0,0,0,0,None,,8e8wwkit7,245188,3.8.1,1,60603496c9a3d83273a11297,6425a4523e44da929c1dc444,641bb22edafdb9baaae4d584,60603496c9a3d83273a11297,6425a4523e44da929c1dc444,641bb22edafdb9baaae4d584,2,m,13337,860,1440,24,900,24,0,0,1440,None,Win32,None,None,English_test.csv,E
None,1,None,12,"_______ newspaper reports, flooding in the area near the river due to the storm has <br/>been much more serious than expected.",None,,Mozilla,Netscape,"5.0 (Windows NT 10.0; Win64; x64) AppleWebKit/537.36 (KHTML, like Gecko) Chrome/111.0.0.0 Safari/537.36",1,None,Chinese_test_tc.csv,None,None,30-02-23,30-02-23,17:02:08,0,0,0,0,0,None,,8e8wwkit7,245188,3.8.1,1,60603496c9a3d83273a11297,6425a4523e44da929c1dc444,641bb22edafdb9baaae4d584,60603496c9a3d83273a11297,6425a4523e44da929c1dc444,641bb22edafdb9baaae4d584,1,m,181724,860,1440,24,900,24,0,0,1440,None,Win32,None,None,English_test.csv,E
None,2,None,17,"To our surprise, Tina was given permission to enter the third grade, although she <br/>______ the previous grade.",None,,Mozilla,Netscape,"5.0 (Windows NT 10.0; Win64; x64) AppleWebKit/537.36 (KHTML, like Gecko) Chrome/111.0.0.0 Safari/537.36",1,None,Chinese_test_tc.csv,None,None,30-02-23,30-02-23,17:02:08,0,0,0,0,0,None,,8e8wwkit7,245188,3.8.1,1,60603496c9a3d83273a11297,6425a4523e44da929c1dc444,641bb22edafdb9baaae4d584,60603496c9a3d83273a11297,6425a4523e44da929c1dc444,641bb22edafdb9baaae4d584,1,m,27101,860,1440,24,900,24,0,0,1440,None,Win32,None,None,English_test.csv,E
None,0,None,8,The boys are in school every day until four o’clock in the afternoon. After that they <br/>_______ an hour playing baseball.,None,,Mozilla,Netscape,"5.0 (Windows NT 10.0; Win64; x64) AppleWebKit/537.36 (KHTML, like Gecko) Chrome/111.0.0.0 Safari/537.36",0,None,Chinese_test_tc.csv,None,None,30-02-23,30-02-23,17:02:08,0,0,0,0,0,None,,8e8wwkit7,245188,3.8.1,1,60603496c9a3d83273a11297,6425a4523e44da929c1dc444,641bb22edafdb9baaae4d584,60603496c9a3d83273a11297,6425a4523e44da929c1dc444,641bb22edafdb9baaae4d584,1,m,9266,860,1440,24,900,24,0,0,1440,None,Win32,None,None,English_test.csv,E
None,0,None,3,Elementary school students don’t have as _______ homework as junior high students do.,None,,Mozilla,Netscape,"5.0 (Windows NT 10.0; Win64; x64) AppleWebKit/537.36 (KHTML, like Gecko) Chrome/111.0.0.0 Safari/537.36",1,None,Chinese_test_tc.csv,None,None,30-02-23,30-02-23,17:02:08,0,0,0,0,0,None,,8e8wwkit7,245188,3.8.1,1,60603496c9a3d83273a11297,6425a4523e44da929c1dc444,641bb22edafdb9baaae4d584,60603496c9a3d83273a11297,6425a4523e44da929c1dc444,641bb22edafdb9baaae4d584,1,m,15976,860,1440,24,900,24,0,0,1440,None,Win32,None,None,English_test.csv,E
None,1,None,16,This proposal for a new high speed train _______ because the cost is too high.,None,,Mozilla,Netscape,"5.0 (Windows NT 10.0; Win64; x64) AppleWebKit/537.36 (KHTML, like Gecko) Chrome/111.0.0.0 Safari/537.36",1,None,Chinese_test_tc.csv,None,None,30-02-23,30-02-23,17:02:08,0,0,0,0,0,None,,8e8wwkit7,245188,3.8.1,1,60603496c9a3d83273a11297,6425a4523e44da929c1dc444,641bb22edafdb9baaae4d584,60603496c9a3d83273a11297,6425a4523e44da929c1dc444,641bb22edafdb9baaae4d584,2,m,12672,860,1440,24,900,24,0,0,1440,None,Win32,None,None,English_test.csv,E
None,0,None,2,The student raced out of the classroom and bumped _______ a teacher who was carrying <br/>a cup of coffee.,None,,Mozilla,Netscape,"5.0 (Windows NT 10.0; Win64; x64) AppleWebKit/537.36 (KHTML, like Gecko) Chrome/111.0.0.0 Safari/537.36",1,None,Chinese_test_tc.csv,None,None,30-02-23,30-02-23,17:02:08,0,0,0,0,0,None,,8e8wwkit7,245188,3.8.1,1,60603496c9a3d83273a11297,6425a4523e44da929c1dc444,641bb22edafdb9baaae4d584,60603496c9a3d83273a11297,6425a4523e44da929c1dc444,641bb22edafdb9baaae4d584,4,m,14357,860,1440,24,900,24,0,0,1440,None,Win32,None,None,English_test.csv,E
None,0,None,1,"Both of those horses live on Jack’s farm, but _______ on the left isn’t his.",None,,Mozilla,Netscape,"5.0 (Windows NT 10.0; Win64; x64) AppleWebKit/537.36 (KHTML, like Gecko) Chrome/111.0.0.0 Safari/537.36",1,None,Chinese_test_tc.csv,None,None,30-02-23,30-02-23,17:02:08,0,0,0,0,0,None,,8e8wwkit7,245188,3.8.1,1,60603496c9a3d83273a11297,6425a4523e44da929c1dc444,641bb22edafdb9baaae4d584,60603496c9a3d83273a11297,6425a4523e44da929c1dc444,641bb22edafdb9baaae4d584,4,m,26782,860,1440,24,900,24,0,0,1440,None,Win32,None,None,English_test.csv,E
None,1,None,14,"Depending on the _______ he is in, the boss will either thank you for your suggestion <br/>or fire you for criticizing his plan.",None,,Mozilla,Netscape,"5.0 (Windows NT 10.0; Win64; x64) AppleWebKit/537.36 (KHTML, like Gecko) Chrome/111.0.0.0 Safari/537.36",1,None,Chinese_test_tc.csv,None,None,30-02-23,30-02-23,17:02:08,0,0,0,0,0,None,,8e8wwkit7,245188,3.8.1,1,60603496c9a3d83273a11297,6425a4523e44da929c1dc444,641bb22edafdb9baaae4d584,60603496c9a3d83273a11297,6425a4523e44da929c1dc444,641bb22edafdb9baaae4d584,2,m,9382,860,1440,24,900,24,0,0,1440,None,Win32,None,None,English_test.csv,E
None,1,None,15,_______ many desirable qualities which make it a commercially very useful metal.,None,,Mozilla,Netscape,"5.0 (Windows NT 10.0; Win64; x64) AppleWebKit/537.36 (KHTML, like Gecko) Chrome/111.0.0.0 Safari/537.36",1,None,Chinese_test_tc.csv,None,None,30-02-23,30-02-23,17:02:08,0,0,0,0,0,None,,8e8wwkit7,245188,3.8.1,1,60603496c9a3d83273a11297,6425a4523e44da929c1dc444,641bb22edafdb9baaae4d584,60603496c9a3d83273a11297,6425a4523e44da929c1dc444,641bb22edafdb9baaae4d584,4,m,10674,860,1440,24,900,24,0,0,1440,None,Win32,None,None,English_test.csv,E
None,2,None,19,The current economic recession is threatening the ______ of many people in the country.,None,,Mozilla,Netscape,"5.0 (Windows NT 10.0; Win64; x64) AppleWebKit/537.36 (KHTML, like Gecko) Chrome/111.0.0.0 Safari/537.36",1,None,Chinese_test_tc.csv,None,None,30-02-23,30-02-23,17:02:08,0,0,0,0,0,None,,8e8wwkit7,245188,3.8.1,1,60603496c9a3d83273a11297,6425a4523e44da929c1dc444,641bb22edafdb9baaae4d584,60603496c9a3d83273a11297,6425a4523e44da929c1dc444,641bb22edafdb9baaae4d584,4,m,8560,860,1440,24,900,24,0,0,1440,None,Win32,None,None,English_test.csv,E
None,1,None,13,New computer technology has _______ changed the way Hollywood movies are made.,None,,Mozilla,Netscape,"5.0 (Windows NT 10.0; Win64; x64) AppleWebKit/537.36 (KHTML, like Gecko) Chrome/111.0.0.0 Safari/537.36",1,None,Chinese_test_tc.csv,None,None,30-02-23,30-02-23,17:02:08,0,0,0,0,0,None,,8e8wwkit7,245188,3.8.1,1,60603496c9a3d83273a11297,6425a4523e44da929c1dc444,641bb22edafdb9baaae4d584,60603496c9a3d83273a11297,6425a4523e44da929c1dc444,641bb22edafdb9baaae4d584,3,m,12561,860,1440,24,900,24,0,0,1440,None,Win32,None,None,English_test.csv,E
None,0,None,9,Writing letters _______ not as difficult as you think.,None,,Mozilla,Netscape,"5.0 (Windows NT 10.0; Win64; x64) AppleWebKit/537.36 (KHTML, like Gecko) Chrome/111.0.0.0 Safari/537.36",1,None,Chinese_test_tc.csv,None,None,30-02-23,30-02-23,17:02:08,0,0,0,0,0,None,,8e8wwkit7,245188,3.8.1,1,60603496c9a3d83273a11297,6425a4523e44da929c1dc444,641bb22edafdb9baaae4d584,60603496c9a3d83273a11297,6425a4523e44da929c1dc444,641bb22edafdb9baaae4d584,2,m,6053,860,1440,24,900,24,0,0,1440,None,Win32,None,None,English_test.csv,E
None,0,None,7,Please separate your garbage and _______ it in the appropriate containers.,None,,Mozilla,Netscape,"5.0 (Windows NT 10.0; Win64; x64) AppleWebKit/537.36 (KHTML, like Gecko) Chrome/111.0.0.0 Safari/537.36",1,None,Chinese_test_tc.csv,None,None,30-02-23,30-02-23,17:02:08,0,0,0,0,0,None,,8e8wwkit7,245188,3.8.1,1,60603496c9a3d83273a11297,6425a4523e44da929c1dc444,641bb22edafdb9baaae4d584,60603496c9a3d83273a11297,6425a4523e44da929c1dc444,641bb22edafdb9baaae4d584,3,m,16614,860,1440,24,900,24,0,0,1440,None,Win32,None,None,English_test.csv,E
None,2,None,18,Some of Curt Wilder’s books have been widely read ______ others have remained <br/>relatively unknown.,None,,Mozilla,Netscape,"5.0 (Windows NT 10.0; Win64; x64) AppleWebKit/537.36 (KHTML, like Gecko) Chrome/111.0.0.0 Safari/537.36",1,None,Chinese_test_tc.csv,None,None,30-02-23,30-02-23,17:02:08,0,0,0,0,0,None,,8e8wwkit7,245188,3.8.1,1,60603496c9a3d83273a11297,6425a4523e44da929c1dc444,641bb22edafdb9baaae4d584,60603496c9a3d83273a11297,6425a4523e44da929c1dc444,641bb22edafdb9baaae4d584,1,m,11009,860,1440,24,900,24,0,0,1440,None,Win32,None,None,English_test.csv,E
None,1,None,11,Flight 305 _______ depart at 3:30 p.m. but was cancelled because of a mechanical<br/>problem in one of the engines.,None,,Mozilla,Netscape,"5.0 (Windows NT 10.0; Win64; x64) AppleWebKit/537.36 (KHTML, like Gecko) Chrome/111.0.0.0 Safari/537.36",1,None,Chinese_test_tc.csv,None,None,30-02-23,30-02-23,17:02:08,0,0,0,0,0,None,,8e8wwkit7,245188,3.8.1,1,60603496c9a3d83273a11297,6425a4523e44da929c1dc444,641bb22edafdb9baaae4d584,60603496c9a3d83273a11297,6425a4523e44da929c1dc444,641bb22edafdb9baaae4d584,1,m,12305,860,1440,24,900,24,0,0,1440,None,Win32,None,None,English_test.csv,E
None,0,None,4,"Mom, Johnny’s mother doesn’t have enough chairs for her dinner guests.She wants to <br/>borrow one of _______.",None,,Mozilla,Netscape,"5.0 (Windows NT 10.0; Win64; x64) AppleWebKit/537.36 (KHTML, like Gecko) Chrome/111.0.0.0 Safari/537.36",1,None,Chinese_test_tc.csv,None,None,30-02-23,30-02-23,17:02:08,0,0,0,0,0,None,,8e8wwkit7,245188,3.8.1,1,60603496c9a3d83273a11297,6425a4523e44da929c1dc444,641bb22edafdb9baaae4d584,60603496c9a3d83273a11297,6425a4523e44da929c1dc444,641bb22edafdb9baaae4d584,3,m,21717,860,1440,24,900,24,0,0,1440,None,Win32,None,None,English_test.csv,E
None,0,None,4,阿英對小華說：「每次出事你都不自己想辦法解決，這次我決定不幫你了！」<br/>從阿英的話中可以推論：,None,,Mozilla,Netscape,"5.0 (Windows NT 10.0; Win64; x64) AppleWebKit/537.36 (KHTML, like Gecko) Chrome/111.0.0.0 Safari/537.36",1,None,Chinese_test_tc.csv,None,None,30-02-23,30-02-23,17:02:08,0,0,0,0,0,None,,8e8wwkit7,245188,3.8.1,1,60603496c9a3d83273a11297,6425a4523e44da929c1dc444,641bb22edafdb9baaae4d584,60603496c9a3d83273a11297,6425a4523e44da929c1dc444,641bb22edafdb9baaae4d584,2,m,1434,860,1440,24,900,24,0,0,1440,None,Win32,None,None,Chinese_test_tc.csv,C
None,2,None,20,下列文句「 」中的量詞，何者使用是適當的？,None,,Mozilla,Netscape,"5.0 (Windows NT 10.0; Win64; x64) AppleWebKit/537.36 (KHTML, like Gecko) Chrome/111.0.0.0 Safari/537.36",0,None,Chinese_test_tc.csv,None,None,30-02-23,30-02-23,17:02:08,0,0,0,0,0,None,,8e8wwkit7,245188,3.8.1,1,60603496c9a3d83273a11297,6425a4523e44da929c1dc444,641bb22edafdb9baaae4d584,60603496c9a3d83273a11297,6425a4523e44da929c1dc444,641bb22edafdb9baaae4d584,3,m,677,860,1440,24,900,24,0,0,1440,None,Win32,None,None,Chinese_test_tc.csv,C
None,0,None,3,「當哥哥寫完功課時，媽媽說：_________」<br/>下面四個選項中的哪句話，最不可能是媽媽的說話內容？,None,,Mozilla,Netscape,"5.0 (Windows NT 10.0; Win64; x64) AppleWebKit/537.36 (KHTML, like Gecko) Chrome/111.0.0.0 Safari/537.36",0,None,Chinese_test_tc.csv,None,None,30-02-23,30-02-23,17:02:08,0,0,0,0,0,None,,8e8wwkit7,245188,3.8.1,1,60603496c9a3d83273a11297,6425a4523e44da929c1dc444,641bb22edafdb9baaae4d584,60603496c9a3d83273a11297,6425a4523e44da929c1dc444,641bb22edafdb9baaae4d584,2,m,414,860,1440,24,900,24,0,0,1440,None,Win32,None,None,Chinese_test_tc.csv,C
None,1,None,10,下列文句「 」中的詞語，何者可以用（ ）的詞語替代？,None,,Mozilla,Netscape,"5.0 (Windows NT 10.0; Win64; x64) AppleWebKit/537.36 (KHTML, like Gecko) Chrome/111.0.0.0 Safari/537.36",0,None,Chinese_test_tc.csv,None,None,30-02-23,30-02-23,17:02:08,0,0,0,0,0,None,,8e8wwkit7,245188,3.8.1,1,60603496c9a3d83273a11297,6425a4523e44da929c1dc444,641bb22edafdb9baaae4d584,60603496c9a3d83273a11297,6425a4523e44da929c1dc444,641bb22edafdb9baaae4d584,3,m,367,860,1440,24,900,24,0,0,1440,None,Win32,None,None,Chinese_test_tc.csv,C
None,0,None,2,下列句子中，何者「 」中的詞語意思是相同的？,None,,Mozilla,Netscape,"5.0 (Windows NT 10.0; Win64; x64) AppleWebKit/537.36 (KHTML, like Gecko) Chrome/111.0.0.0 Safari/537.36",1,None,Chinese_test_tc.csv,None,None,30-02-23,30-02-23,17:02:08,0,0,0,0,0,None,,8e8wwkit7,245188,3.8.1,1,60603496c9a3d83273a11297,6425a4523e44da929c1dc444,641bb22edafdb9baaae4d584,60603496c9a3d83273a11297,6425a4523e44da929c1dc444,641bb22edafdb9baaae4d584,4,m,19,860,1440,24,900,24,0,0,1440,None,Win32,None,None,Chinese_test_tc.csv,C
None,2,None,18,下列「 」中的詞語，何組前後意義相同？,None,,Mozilla,Netscape,"5.0 (Windows NT 10.0; Win64; x64) AppleWebKit/537.36 (KHTML, like Gecko) Chrome/111.0.0.0 Safari/537.36",0,None,Chinese_test_tc.csv,None,None,30-02-23,30-02-23,17:02:08,0,0,0,0,0,None,,8e8wwkit7,245188,3.8.1,1,60603496c9a3d83273a11297,6425a4523e44da929c1dc444,641bb22edafdb9baaae4d584,60603496c9a3d83273a11297,6425a4523e44da929c1dc444,641bb22edafdb9baaae4d584,4,m,57,860,1440,24,900,24,0,0,1440,None,Win32,None,None,Chinese_test_tc.csv,C
None,1,None,14,「參加運動競賽，__有光明的失敗，__要不榮譽的成功。」<br/>__中要填上下列哪一 組的連接詞最適切？,None,,Mozilla,Netscape,"5.0 (Windows NT 10.0; Win64; x64) AppleWebKit/537.36 (KHTML, like Gecko) Chrome/111.0.0.0 Safari/537.36",0,None,Chinese_test_tc.csv,None,None,30-02-23,30-02-23,17:02:08,0,0,0,0,0,None,,8e8wwkit7,245188,3.8.1,1,60603496c9a3d83273a11297,6425a4523e44da929c1dc444,641bb22edafdb9baaae4d584,60603496c9a3d83273a11297,6425a4523e44da929c1dc444,641bb22edafdb9baaae4d584,4,m,55,860,1440,24,900,24,0,0,1440,None,Win32,None,None,Chinese_test_tc.csv,C
None,1,None,13,下列哪一選項前後兩句的意思相同？,None,,Mozilla,Netscape,"5.0 (Windows NT 10.0; Win64; x64) AppleWebKit/537.36 (KHTML, like Gecko) Chrome/111.0.0.0 Safari/537.36",0,None,Chinese_test_tc.csv,None,None,30-02-23,30-02-23,17:02:08,0,0,0,0,0,None,,8e8wwkit7,245188,3.8.1,1,60603496c9a3d83273a11297,6425a4523e44da929c1dc444,641bb22edafdb9baaae4d584,60603496c9a3d83273a11297,6425a4523e44da929c1dc444,641bb22edafdb9baaae4d584,4,m,2,860,1440,24,900,24,0,0,1440,None,Win32,None,None,Chinese_test_tc.csv,C
None,0,None,9,下列哪個句子中的「決定」是動詞？,None,,Mozilla,Netscape,"5.0 (Windows NT 10.0; Win64; x64) AppleWebKit/537.36 (KHTML, like Gecko) Chrome/111.0.0.0 Safari/537.36",0,None,Chinese_test_tc.csv,None,None,30-02-23,30-02-23,17:02:08,0,0,0,0,0,None,,8e8wwkit7,245188,3.8.1,1,60603496c9a3d83273a11297,6425a4523e44da929c1dc444,641bb22edafdb9baaae4d584,60603496c9a3d83273a11297,6425a4523e44da929c1dc444,641bb22edafdb9baaae4d584,4,m,2,860,1440,24,900,24,0,0,1440,None,Win32,None,None,Chinese_test_tc.csv,C
None,1,None,15,以下句子，何者連接詞使用完全正確？,None,,Mozilla,Netscape,"5.0 (Windows NT 10.0; Win64; x64) AppleWebKit/537.36 (KHTML, like Gecko) Chrome/111.0.0.0 Safari/537.36",0,None,Chinese_test_tc.csv,None,None,30-02-23,30-02-23,17:02:08,0,0,0,0,0,None,,8e8wwkit7,245188,3.8.1,1,60603496c9a3d83273a11297,6425a4523e44da929c1dc444,641bb22edafdb9baaae4d584,60603496c9a3d83273a11297,6425a4523e44da929c1dc444,641bb22edafdb9baaae4d584,1,m,304,860,1440,24,900,24,0,0,1440,None,Win32,None,None,Chinese_test_tc.csv,C
None,0,None,8,我絕對不是這個「意思」，你不要誤會。<br/>上句「 」中的詞語意思和下面哪一個相同？,None,,Mozilla,Netscape,"5.0 (Windows NT 10.0; Win64; x64) AppleWebKit/537.36 (KHTML, like Gecko) Chrome/111.0.0.0 Safari/537.36",0,None,Chinese_test_tc.csv,None,None,30-02-23,30-02-23,17:02:08,0,0,0,0,0,None,,8e8wwkit7,245188,3.8.1,1,60603496c9a3d83273a11297,6425a4523e44da929c1dc444,641bb22edafdb9baaae4d584,60603496c9a3d83273a11297,6425a4523e44da929c1dc444,641bb22edafdb9baaae4d584,4,m,283,860,1440,24,900,24,0,0,1440,None,Win32,None,None,Chinese_test_tc.csv,C
None,0,None,7,「_確定出遊日期，眾人_七嘴八舌的開始討論細節。」<br/>_中的連接詞最適合填入下列 哪一組？,None,,Mozilla,Netscape,"5.0 (Windows NT 10.0; Win64; x64) AppleWebKit/537.36 (KHTML, like Gecko) Chrome/111.0.0.0 Safari/537.36",0,None,Chinese_test_tc.csv,None,None,30-02-23,30-02-23,17:02:08,0,0,0,0,0,None,,8e8wwkit7,245188,3.8.1,1,60603496c9a3d83273a11297,6425a4523e44da929c1dc444,641bb22edafdb9baaae4d584,60603496c9a3d83273a11297,6425a4523e44da929c1dc444,641bb22edafdb9baaae4d584,3,m,186,860,1440,24,900,24,0,0,1440,None,Win32,None,None,Chinese_test_tc.csv,C
None,1,None,12,下列「 」中的語詞，何者意思前後相同？,None,,Mozilla,Netscape,"5.0 (Windows NT 10.0; Win64; x64) AppleWebKit/537.36 (KHTML, like Gecko) Chrome/111.0.0.0 Safari/537.36",1,None,Chinese_test_tc.csv,None,None,30-02-23,30-02-23,17:02:08,0,0,0,0,0,None,,8e8wwkit7,245188,3.8.1,1,60603496c9a3d83273a11297,6425a4523e44da929c1dc444,641bb22edafdb9baaae4d584,60603496c9a3d83273a11297,6425a4523e44da929c1dc444,641bb22edafdb9baaae4d584,2,m,271,860,1440,24,900,24,0,0,1440,None,Win32,None,None,Chinese_test_tc.csv,C
None,1,None,11,下列各組句子的意思，何者可以用來說明友誼的重要？,None,,Mozilla,Netscape,"5.0 (Windows NT 10.0; Win64; x64) AppleWebKit/537.36 (KHTML, like Gecko) Chrome/111.0.0.0 Safari/537.36",0,None,Chinese_test_tc.csv,None,None,30-02-23,30-02-23,17:02:08,0,0,0,0,0,None,,8e8wwkit7,245188,3.8.1,1,60603496c9a3d83273a11297,6425a4523e44da929c1dc444,641bb22edafdb9baaae4d584,60603496c9a3d83273a11297,6425a4523e44da929c1dc444,641bb22edafdb9baaae4d584,2,m,482,860,1440,24,900,24,0,0,1440,None,Win32,None,None,Chinese_test_tc.csv,C
None,0,None,5,下列連接詞，何者使用最適切？,None,,Mozilla,Netscape,"5.0 (Windows NT 10.0; Win64; x64) AppleWebKit/537.36 (KHTML, like Gecko) Chrome/111.0.0.0 Safari/537.36",0,None,Chinese_test_tc.csv,None,None,30-02-23,30-02-23,17:02:08,0,0,0,0,0,None,,8e8wwkit7,245188,3.8.1,1,60603496c9a3d83273a11297,6425a4523e44da929c1dc444,641bb22edafdb9baaae4d584,60603496c9a3d83273a11297,6425a4523e44da929c1dc444,641bb22edafdb9baaae4d584,1,m,206,860,1440,24,900,24,0,0,1440,None,Win32,None,None,Chinese_test_tc.csv,C
None,1,None,16,下列選項「 」中的詞語，何者前後的詞性及詞義相同？,None,,Mozilla,Netscape,"5.0 (Windows NT 10.0; Win64; x64) AppleWebKit/537.36 (KHTML, like Gecko) Chrome/111.0.0.0 Safari/537.36",1,None,Chinese_test_tc.csv,None,None,30-02-23,30-02-23,17:02:08,0,0,0,0,0,None,,8e8wwkit7,245188,3.8.1,1,60603496c9a3d83273a11297,6425a4523e44da929c1dc444,641bb22edafdb9baaae4d584,60603496c9a3d83273a11297,6425a4523e44da929c1dc444,641bb22edafdb9baaae4d584,2,m,344,860,1440,24,900,24,0,0,1440,None,Win32,None,None,Chinese_test_tc.csv,C
None,2,None,17,「攪拌原料時，興奮地思考著等下要怎麼去裝飾；放進烤箱後小心翼翼地__，<br/> 深怕一個疏忽就焦黑；出爐那一刻__空間的__香氣，令人不禁想要偷吃。<br/>本書就是要__您進入烘烤點心這麼一個令人幸福的甜美世界。」<br/>上述文__ 處，最適合填入下列哪一組語詞？,None,,Mozilla,Netscape,"5.0 (Windows NT 10.0; Win64; x64) AppleWebKit/537.36 (KHTML, like Gecko) Chrome/111.0.0.0 Safari/537.36",1,None,Chinese_test_tc.csv,None,None,30-02-23,30-02-23,17:02:08,0,0,0,0,0,None,,8e8wwkit7,245188,3.8.1,1,60603496c9a3d83273a11297,6425a4523e44da929c1dc444,641bb22edafdb9baaae4d584,60603496c9a3d83273a11297,6425a4523e44da929c1dc444,641bb22edafdb9baaae4d584,3,m,340,860,1440,24,900,24,0,0,1440,None,Win32,None,None,Chinese_test_tc.csv,C
None,0,None,1,下列各組「 」內詞語意義，何者前後相同？,None,,Mozilla,Netscape,"5.0 (Windows NT 10.0; Win64; x64) AppleWebKit/537.36 (KHTML, like Gecko) Chrome/111.0.0.0 Safari/537.36",0,None,Chinese_test_tc.csv,None,None,30-02-23,30-02-23,17:02:08,0,0,0,0,0,None,,8e8wwkit7,245188,3.8.1,1,60603496c9a3d83273a11297,6425a4523e44da929c1dc444,641bb22edafdb9baaae4d584,60603496c9a3d83273a11297,6425a4523e44da929c1dc444,641bb22edafdb9baaae4d584,4,m,403,860,1440,24,900,24,0,0,1440,None,Win32,None,None,Chinese_test_tc.csv,C
None,0,None,6,以下句子，何者連接詞使用完全正確？,None,,Mozilla,Netscape,"5.0 (Windows NT 10.0; Win64; x64) AppleWebKit/537.36 (KHTML, like Gecko) Chrome/111.0.0.0 Safari/537.36",1,None,Chinese_test_tc.csv,None,None,30-02-23,30-02-23,17:02:08,0,0,0,0,0,None,,8e8wwkit7,245188,3.8.1,1,60603496c9a3d83273a11297,6425a4523e44da929c1dc444,641bb22edafdb9baaae4d584,60603496c9a3d83273a11297,6425a4523e44da929c1dc444,641bb22edafdb9baaae4d584,2,m,249,860,1440,24,900,24,0,0,1440,None,Win32,None,None,Chinese_test_tc.csv,C
None,2,None,19,下列「 」中的詞語，何者可以用後者代換，而不影響詞義？,None,,Mozilla,Netscape,"5.0 (Windows NT 10.0; Win64; x64) AppleWebKit/537.36 (KHTML, like Gecko) Chrome/111.0.0.0 Safari/537.36",0,None,Chinese_test_tc.csv,None,None,30-02-23,30-02-23,17:02:08,0,0,0,0,0,None,,8e8wwkit7,245188,3.8.1,1,60603496c9a3d83273a11297,6425a4523e44da929c1dc444,641bb22edafdb9baaae4d584,60603496c9a3d83273a11297,6425a4523e44da929c1dc444,641bb22edafdb9baaae4d584,3,m,132,860,1440,24,900,24,0,0,1440,None,Win32,None,None,Chinese_test_tc.csv,C
None,None,None,None,None,None,None,Mozilla,Netscape,"5.0 (Windows NT 10.0; Win64; x64) AppleWebKit/537.36 (KHTML, like Gecko) Chrome/111.0.0.0 Safari/537.36",undefined,None,None,None,None,31-02-23,01-03-23,18:01:31,0,0,0,0,0,None,None,5ixacfo10,246123,3.8.1,None,63f17e1ddab0bae83dca59e5,6427801fba936374c14f0a64,641bb22edafdb9baaae4d584,63f17e1ddab0bae83dca59e5,6427801fba936374c14f0a64,641bb22edafdb9baaae4d584,a,m,3937,1040,1920,24,1080,24,0,0,1920,None,Win32,None,None,None,consent
None,None,None,None,請問您的性別？<br/>Your gender?<br/>輸入對應選項的號碼表達您的回答<br>Please select your best option.,None,,Mozilla,Netscape,"5.0 (Windows NT 10.0; Win64; x64) AppleWebKit/537.36 (KHTML, like Gecko) Chrome/111.0.0.0 Safari/537.36",undefined,None,None,None,None,31-02-23,01-03-23,18:01:31,0,0,0,0,0,None,2,5ixacfo10,246123,3.8.1,,63f17e1ddab0bae83dca59e5,6427801fba936374c14f0a64,641bb22edafdb9baaae4d584,63f17e1ddab0bae83dca59e5,6427801fba936374c14f0a64,641bb22edafdb9baaae4d584,2,m,18424,1040,1920,24,1080,24,0,0,1920,None,Win32,None,None,None,Pre_survey
None,None,None,None,請問您的性別？<br/>Your gender?<br/>輸入對應選項的號碼表達您的回答<br>Please select your best option.,None,,Mozilla,Netscape,"5.0 (Windows NT 10.0; Win64; x64) AppleWebKit/537.36 (KHTML, like Gecko) Chrome/111.0.0.0 Safari/537.36",undefined,None,None,None,None,31-02-23,01-03-23,18:01:31,0,0,0,0,0,None,2,5ixacfo10,246123,3.8.1,,63f17e1ddab0bae83dca59e5,6427801fba936374c14f0a64,641bb22edafdb9baaae4d584,63f17e1ddab0bae83dca59e5,6427801fba936374c14f0a64,641bb22edafdb9baaae4d584,enter,m,24394,1040,1920,24,1080,24,0,0,1920,None,Win32,None,None,None,Pre_survey
None,None,None,None,請輸入您的出生西元年4位數字<br />Your birth year?<br />例如: 出生年月日是 2000/1/1<br />If your birthday is 2000/1/1<br />請輸入: 2000<br />Input: 2000,None,0,Mozilla,Netscape,"5.0 (Windows NT 10.0; Win64; x64) AppleWebKit/537.36 (KHTML, like Gecko) Chrome/111.0.0.0 Safari/537.36",undefined,None,None,None,None,31-02-23,01-03-23,18:01:31,0,0,0,0,0,None,,5ixacfo10,246123,3.8.1,,63f17e1ddab0bae83dca59e5,6427801fba936374c14f0a64,641bb22edafdb9baaae4d584,63f17e1ddab0bae83dca59e5,6427801fba936374c14f0a64,641bb22edafdb9baaae4d584,0,m,10595,1040,1920,24,1080,24,0,0,1920,None,Win32,None,None,None,Pre_survey
None,None,None,None,請輸入您的出生西元年4位數字<br />Your birth year?<br />例如: 出生年月日是 2000/1/1<br />If your birthday is 2000/1/1<br />請輸入: 2000<br />Input: 2000,None,0,Mozilla,Netscape,"5.0 (Windows NT 10.0; Win64; x64) AppleWebKit/537.36 (KHTML, like Gecko) Chrome/111.0.0.0 Safari/537.36",undefined,None,None,None,None,31-02-23,01-03-23,18:01:31,0,0,0,0,0,None,,5ixacfo10,246123,3.8.1,,63f17e1ddab0bae83dca59e5,6427801fba936374c14f0a64,641bb22edafdb9baaae4d584,63f17e1ddab0bae83dca59e5,6427801fba936374c14f0a64,641bb22edafdb9baaae4d584,enter,m,1959,1040,1920,24,1080,24,0,0,1920,None,Win32,None,None,None,Pre_survey
None,None,None,None,請問你的母語是中文還是英文？<br/>Which is your native language? English or Chinese?<br/>輸入對應選項的號碼表達您的回答<br>Please select your best option.,None,,Mozilla,Netscape,"5.0 (Windows NT 10.0; Win64; x64) AppleWebKit/537.36 (KHTML, like Gecko) Chrome/111.0.0.0 Safari/537.36",undefined,None,None,None,None,31-02-23,01-03-23,18:01:31,0,0,0,0,0,None,,5ixacfo10,246123,3.8.1,2,63f17e1ddab0bae83dca59e5,6427801fba936374c14f0a64,641bb22edafdb9baaae4d584,63f17e1ddab0bae83dca59e5,6427801fba936374c14f0a64,641bb22edafdb9baaae4d584,2,m,6831,1040,1920,24,1080,24,0,0,1920,None,Win32,None,None,None,Pre_survey
None,None,None,None,請問你的母語是中文還是英文？<br/>Which is your native language? English or Chinese?<br/>輸入對應選項的號碼表達您的回答<br>Please select your best option.,None,,Mozilla,Netscape,"5.0 (Windows NT 10.0; Win64; x64) AppleWebKit/537.36 (KHTML, like Gecko) Chrome/111.0.0.0 Safari/537.36",undefined,None,None,None,None,31-02-23,01-03-23,18:01:31,0,0,0,0,0,None,,5ixacfo10,246123,3.8.1,2,63f17e1ddab0bae83dca59e5,6427801fba936374c14f0a64,641bb22edafdb9baaae4d584,63f17e1ddab0bae83dca59e5,6427801fba936374c14f0a64,641bb22edafdb9baaae4d584,enter,m,1162,1040,1920,24,1080,24,0,0,1920,None,Win32,None,None,None,Pre_survey
None,1,None,15,_______ many desirable qualities which make it a commercially very useful metal.,None,,Mozilla,Netscape,"5.0 (Windows NT 10.0; Win64; x64) AppleWebKit/537.36 (KHTML, like Gecko) Chrome/111.0.0.0 Safari/537.36",0,None,Chinese_test_tc.csv,None,None,31-02-23,01-03-23,18:01:31,0,0,0,0,0,None,,5ixacfo10,246123,3.8.1,2,63f17e1ddab0bae83dca59e5,6427801fba936374c14f0a64,641bb22edafdb9baaae4d584,63f17e1ddab0bae83dca59e5,6427801fba936374c14f0a64,641bb22edafdb9baaae4d584,3,m,7271,1040,1920,24,1080,24,0,0,1920,None,Win32,None,None,English_test.csv,E
None,1,None,10,Defensive drivers _______ their driving mirrors frequently so that they know at all <br/>times if there are other vehicles or people nearby.,None,,Mozilla,Netscape,"5.0 (Windows NT 10.0; Win64; x64) AppleWebKit/537.36 (KHTML, like Gecko) Chrome/111.0.0.0 Safari/537.36",0,None,Chinese_test_tc.csv,None,None,31-02-23,01-03-23,18:01:31,0,0,0,0,0,None,,5ixacfo10,246123,3.8.1,2,63f17e1ddab0bae83dca59e5,6427801fba936374c14f0a64,641bb22edafdb9baaae4d584,63f17e1ddab0bae83dca59e5,6427801fba936374c14f0a64,641bb22edafdb9baaae4d584,4,m,1175,1040,1920,24,1080,24,0,0,1920,None,Win32,None,None,English_test.csv,E
None,0,None,2,The student raced out of the classroom and bumped _______ a teacher who was carrying <br/>a cup of coffee.,None,,Mozilla,Netscape,"5.0 (Windows NT 10.0; Win64; x64) AppleWebKit/537.36 (KHTML, like Gecko) Chrome/111.0.0.0 Safari/537.36",1,None,Chinese_test_tc.csv,None,None,31-02-23,01-03-23,18:01:31,0,0,0,0,0,None,,5ixacfo10,246123,3.8.1,2,63f17e1ddab0bae83dca59e5,6427801fba936374c14f0a64,641bb22edafdb9baaae4d584,63f17e1ddab0bae83dca59e5,6427801fba936374c14f0a64,641bb22edafdb9baaae4d584,4,m,5262,1040,1920,24,1080,24,0,0,1920,None,Win32,None,None,English_test.csv,E
None,2,None,19,The current economic recession is threatening the ______ of many people in the country.,None,,Mozilla,Netscape,"5.0 (Windows NT 10.0; Win64; x64) AppleWebKit/537.36 (KHTML, like Gecko) Chrome/111.0.0.0 Safari/537.36",1,None,Chinese_test_tc.csv,None,None,31-02-23,01-03-23,18:01:31,0,0,0,0,0,None,,5ixacfo10,246123,3.8.1,2,63f17e1ddab0bae83dca59e5,6427801fba936374c14f0a64,641bb22edafdb9baaae4d584,63f17e1ddab0bae83dca59e5,6427801fba936374c14f0a64,641bb22edafdb9baaae4d584,3,m,27628,1040,1920,24,1080,24,0,0,1920,None,Win32,None,None,English_test.csv,E
None,0,None,8,The boys are in school every day until four o’clock in the afternoon. After that they <br/>_______ an hour playing baseball.,None,,Mozilla,Netscape,"5.0 (Windows NT 10.0; Win64; x64) AppleWebKit/537.36 (KHTML, like Gecko) Chrome/111.0.0.0 Safari/537.36",1,None,Chinese_test_tc.csv,None,None,31-02-23,01-03-23,18:01:31,0,0,0,0,0,None,,5ixacfo10,246123,3.8.1,2,63f17e1ddab0bae83dca59e5,6427801fba936374c14f0a64,641bb22edafdb9baaae4d584,63f17e1ddab0bae83dca59e5,6427801fba936374c14f0a64,641bb22edafdb9baaae4d584,1,m,9092,1040,1920,24,1080,24,0,0,1920,None,Win32,None,None,English_test.csv,E
None,1,None,12,"_______ newspaper reports, flooding in the area near the river due to the storm has <br/>been much more serious than expected.",None,,Mozilla,Netscape,"5.0 (Windows NT 10.0; Win64; x64) AppleWebKit/537.36 (KHTML, like Gecko) Chrome/111.0.0.0 Safari/537.36",0,None,Chinese_test_tc.csv,None,None,31-02-23,01-03-23,18:01:31,0,0,0,0,0,None,,5ixacfo10,246123,3.8.1,2,63f17e1ddab0bae83dca59e5,6427801fba936374c14f0a64,641bb22edafdb9baaae4d584,63f17e1ddab0bae83dca59e5,6427801fba936374c14f0a64,641bb22edafdb9baaae4d584,3,m,4663,1040,1920,24,1080,24,0,0,1920,None,Win32,None,None,English_test.csv,E
None,1,None,13,New computer technology has _______ changed the way Hollywood movies are made.,None,,Mozilla,Netscape,"5.0 (Windows NT 10.0; Win64; x64) AppleWebKit/537.36 (KHTML, like Gecko) Chrome/111.0.0.0 Safari/537.36",0,None,Chinese_test_tc.csv,None,None,31-02-23,01-03-23,18:01:31,0,0,0,0,0,None,,5ixacfo10,246123,3.8.1,2,63f17e1ddab0bae83dca59e5,6427801fba936374c14f0a64,641bb22edafdb9baaae4d584,63f17e1ddab0bae83dca59e5,6427801fba936374c14f0a64,641bb22edafdb9baaae4d584,4,m,403,1040,1920,24,1080,24,0,0,1920,None,Win32,None,None,English_test.csv,E
None,1,None,11,Flight 305 _______ depart at 3:30 p.m. but was cancelled because of a mechanical<br/>problem in one of the engines.,None,,Mozilla,Netscape,"5.0 (Windows NT 10.0; Win64; x64) AppleWebKit/537.36 (KHTML, like Gecko) Chrome/111.0.0.0 Safari/537.36",0,None,Chinese_test_tc.csv,None,None,31-02-23,01-03-23,18:01:31,0,0,0,0,0,None,,5ixacfo10,246123,3.8.1,2,63f17e1ddab0bae83dca59e5,6427801fba936374c14f0a64,641bb22edafdb9baaae4d584,63f17e1ddab0bae83dca59e5,6427801fba936374c14f0a64,641bb22edafdb9baaae4d584,2,m,108,1040,1920,24,1080,24,0,0,1920,None,Win32,None,None,English_test.csv,E
None,0,None,1,"Both of those horses live on Jack’s farm, but _______ on the left isn’t his.",None,,Mozilla,Netscape,"5.0 (Windows NT 10.0; Win64; x64) AppleWebKit/537.36 (KHTML, like Gecko) Chrome/111.0.0.0 Safari/537.36",0,None,Chinese_test_tc.csv,None,None,31-02-23,01-03-23,18:01:31,0,0,0,0,0,None,,5ixacfo10,246123,3.8.1,2,63f17e1ddab0bae83dca59e5,6427801fba936374c14f0a64,641bb22edafdb9baaae4d584,63f17e1ddab0bae83dca59e5,6427801fba936374c14f0a64,641bb22edafdb9baaae4d584,2,m,20,1040,1920,24,1080,24,0,0,1920,None,Win32,None,None,English_test.csv,E
None,0,None,9,Writing letters _______ not as difficult as you think.,None,,Mozilla,Netscape,"5.0 (Windows NT 10.0; Win64; x64) AppleWebKit/537.36 (KHTML, like Gecko) Chrome/111.0.0.0 Safari/537.36",0,None,Chinese_test_tc.csv,None,None,31-02-23,01-03-23,18:01:31,0,0,0,0,0,None,,5ixacfo10,246123,3.8.1,2,63f17e1ddab0bae83dca59e5,6427801fba936374c14f0a64,641bb22edafdb9baaae4d584,63f17e1ddab0bae83dca59e5,6427801fba936374c14f0a64,641bb22edafdb9baaae4d584,2,m,26422,1040,1920,24,1080,24,0,0,1920,None,Win32,None,None,English_test.csv,E
None,0,None,5,"The bus was full, but Judy saw an empty seat next to an old woman.“_______ I sit here?” <br/>she asked her.",None,,Mozilla,Netscape,"5.0 (Windows NT 10.0; Win64; x64) AppleWebKit/537.36 (KHTML, like Gecko) Chrome/111.0.0.0 Safari/537.36",1,None,Chinese_test_tc.csv,None,None,31-02-23,01-03-23,18:01:31,0,0,0,0,0,None,,5ixacfo10,246123,3.8.1,2,63f17e1ddab0bae83dca59e5,6427801fba936374c14f0a64,641bb22edafdb9baaae4d584,63f17e1ddab0bae83dca59e5,6427801fba936374c14f0a64,641bb22edafdb9baaae4d584,3,m,7091,1040,1920,24,1080,24,0,0,1920,None,Win32,None,None,English_test.csv,E
None,0,None,3,Elementary school students don’t have as _______ homework as junior high students do.,None,,Mozilla,Netscape,"5.0 (Windows NT 10.0; Win64; x64) AppleWebKit/537.36 (KHTML, like Gecko) Chrome/111.0.0.0 Safari/537.36",1,None,Chinese_test_tc.csv,None,None,31-02-23,01-03-23,18:01:31,0,0,0,0,0,None,,5ixacfo10,246123,3.8.1,2,63f17e1ddab0bae83dca59e5,6427801fba936374c14f0a64,641bb22edafdb9baaae4d584,63f17e1ddab0bae83dca59e5,6427801fba936374c14f0a64,641bb22edafdb9baaae4d584,2,m,8327,1040,1920,24,1080,24,0,0,1920,None,Win32,None,None,English_test.csv,E
None,0,None,6,Sara was _______ because her grandmother had put more money in her brother’s red <br/>envelope.,None,,Mozilla,Netscape,"5.0 (Windows NT 10.0; Win64; x64) AppleWebKit/537.36 (KHTML, like Gecko) Chrome/111.0.0.0 Safari/537.36",1,None,Chinese_test_tc.csv,None,None,31-02-23,01-03-23,18:01:31,0,0,0,0,0,None,,5ixacfo10,246123,3.8.1,2,63f17e1ddab0bae83dca59e5,6427801fba936374c14f0a64,641bb22edafdb9baaae4d584,63f17e1ddab0bae83dca59e5,6427801fba936374c14f0a64,641bb22edafdb9baaae4d584,1,m,15455,1040,1920,24,1080,24,0,0,1920,None,Win32,None,None,English_test.csv,E
None,1,None,14,"Depending on the _______ he is in, the boss will either thank you for your suggestion <br/>or fire you for criticizing his plan.",None,,Mozilla,Netscape,"5.0 (Windows NT 10.0; Win64; x64) AppleWebKit/537.36 (KHTML, like Gecko) Chrome/111.0.0.0 Safari/537.36",1,None,Chinese_test_tc.csv,None,None,31-02-23,01-03-23,18:01:31,0,0,0,0,0,None,,5ixacfo10,246123,3.8.1,2,63f17e1ddab0bae83dca59e5,6427801fba936374c14f0a64,641bb22edafdb9baaae4d584,63f17e1ddab0bae83dca59e5,6427801fba936374c14f0a64,641bb22edafdb9baaae4d584,1,m,29722,1040,1920,24,1080,24,0,0,1920,None,Win32,None,None,English_test.csv,E
None,0,None,4,"Mom, Johnny’s mother doesn’t have enough chairs for her dinner guests.She wants to <br/>borrow one of _______.",None,,Mozilla,Netscape,"5.0 (Windows NT 10.0; Win64; x64) AppleWebKit/537.36 (KHTML, like Gecko) Chrome/111.0.0.0 Safari/537.36",1,None,Chinese_test_tc.csv,None,None,31-02-23,01-03-23,18:01:31,0,0,0,0,0,None,,5ixacfo10,246123,3.8.1,2,63f17e1ddab0bae83dca59e5,6427801fba936374c14f0a64,641bb22edafdb9baaae4d584,63f17e1ddab0bae83dca59e5,6427801fba936374c14f0a64,641bb22edafdb9baaae4d584,1,m,432,1040,1920,24,1080,24,0,0,1920,None,Win32,None,None,English_test.csv,E
None,2,None,17,"To our surprise, Tina was given permission to enter the third grade, although she <br/>______ the previous grade.",None,,Mozilla,Netscape,"5.0 (Windows NT 10.0; Win64; x64) AppleWebKit/537.36 (KHTML, like Gecko) Chrome/111.0.0.0 Safari/537.36",1,None,Chinese_test_tc.csv,None,None,31-02-23,01-03-23,18:01:31,0,0,0,0,0,None,,5ixacfo10,246123,3.8.1,2,63f17e1ddab0bae83dca59e5,6427801fba936374c14f0a64,641bb22edafdb9baaae4d584,63f17e1ddab0bae83dca59e5,6427801fba936374c14f0a64,641bb22edafdb9baaae4d584,1,m,319,1040,1920,24,1080,24,0,0,1920,None,Win32,None,None,English_test.csv,E
None,2,None,18,Some of Curt Wilder’s books have been widely read ______ others have remained <br/>relatively unknown.,None,,Mozilla,Netscape,"5.0 (Windows NT 10.0; Win64; x64) AppleWebKit/537.36 (KHTML, like Gecko) Chrome/111.0.0.0 Safari/537.36",0,None,Chinese_test_tc.csv,None,None,31-02-23,01-03-23,18:01:31,0,0,0,0,0,None,,5ixacfo10,246123,3.8.1,2,63f17e1ddab0bae83dca59e5,6427801fba936374c14f0a64,641bb22edafdb9baaae4d584,63f17e1ddab0bae83dca59e5,6427801fba936374c14f0a64,641bb22edafdb9baaae4d584,1,m,350,1040,1920,24,1080,24,0,0,1920,None,Win32,None,None,English_test.csv,E
None,0,None,7,Please separate your garbage and _______ it in the appropriate containers.,None,,Mozilla,Netscape,"5.0 (Windows NT 10.0; Win64; x64) AppleWebKit/537.36 (KHTML, like Gecko) Chrome/111.0.0.0 Safari/537.36",0,None,Chinese_test_tc.csv,None,None,31-02-23,01-03-23,18:01:31,0,0,0,0,0,None,,5ixacfo10,246123,3.8.1,2,63f17e1ddab0bae83dca59e5,6427801fba936374c14f0a64,641bb22edafdb9baaae4d584,63f17e1ddab0bae83dca59e5,6427801fba936374c14f0a64,641bb22edafdb9baaae4d584,1,m,339,1040,1920,24,1080,24,0,0,1920,None,Win32,None,None,English_test.csv,E
None,2,None,20,______ that something like this would happen to me.,None,,Mozilla,Netscape,"5.0 (Windows NT 10.0; Win64; x64) AppleWebKit/537.36 (KHTML, like Gecko) Chrome/111.0.0.0 Safari/537.36",0,None,Chinese_test_tc.csv,None,None,31-02-23,01-03-23,18:01:31,0,0,0,0,0,None,,5ixacfo10,246123,3.8.1,2,63f17e1ddab0bae83dca59e5,6427801fba936374c14f0a64,641bb22edafdb9baaae4d584,63f17e1ddab0bae83dca59e5,6427801fba936374c14f0a64,641bb22edafdb9baaae4d584,2,m,311,1040,1920,24,1080,24,0,0,1920,None,Win32,None,None,English_test.csv,E
None,1,None,16,This proposal for a new high speed train _______ because the cost is too high.,None,,Mozilla,Netscape,"5.0 (Windows NT 10.0; Win64; x64) AppleWebKit/537.36 (KHTML, like Gecko) Chrome/111.0.0.0 Safari/537.36",1,None,Chinese_test_tc.csv,None,None,31-02-23,01-03-23,18:01:31,0,0,0,0,0,None,,5ixacfo10,246123,3.8.1,2,63f17e1ddab0bae83dca59e5,6427801fba936374c14f0a64,641bb22edafdb9baaae4d584,63f17e1ddab0bae83dca59e5,6427801fba936374c14f0a64,641bb22edafdb9baaae4d584,3,m,388,1040,1920,24,1080,24,0,0,1920,None,Win32,None,None,English_test.csv,E
None,0,None,2,下列句子中，何者「 」中的詞語意思是相同的？,None,,Mozilla,Netscape,"5.0 (Windows NT 10.0; Win64; x64) AppleWebKit/537.36 (KHTML, like Gecko) Chrome/111.0.0.0 Safari/537.36",0,None,Chinese_test_tc.csv,None,None,31-02-23,01-03-23,18:01:31,0,0,0,0,0,None,,5ixacfo10,246123,3.8.1,2,63f17e1ddab0bae83dca59e5,6427801fba936374c14f0a64,641bb22edafdb9baaae4d584,63f17e1ddab0bae83dca59e5,6427801fba936374c14f0a64,641bb22edafdb9baaae4d584,2,m,7525,1040,1920,24,1080,24,0,0,1920,None,Win32,None,None,Chinese_test_tc.csv,C
None,0,None,8,我絕對不是這個「意思」，你不要誤會。<br/>上句「 」中的詞語意思和下面哪一個相同？,None,,Mozilla,Netscape,"5.0 (Windows NT 10.0; Win64; x64) AppleWebKit/537.36 (KHTML, like Gecko) Chrome/111.0.0.0 Safari/537.36",1,None,Chinese_test_tc.csv,None,None,31-02-23,01-03-23,18:01:31,0,0,0,0,0,None,,5ixacfo10,246123,3.8.1,2,63f17e1ddab0bae83dca59e5,6427801fba936374c14f0a64,641bb22edafdb9baaae4d584,63f17e1ddab0bae83dca59e5,6427801fba936374c14f0a64,641bb22edafdb9baaae4d584,1,m,520,1040,1920,24,1080,24,0,0,1920,None,Win32,None,None,Chinese_test_tc.csv,C
