task,PPnr,conjunction_single,match_mismatch,trial,accuracy,reaction_time
no_gap,R_08x3yfNtCFtgBYl,conj,m,sim_conj_m,1,5.812
no_gap,R_08x3yfNtCFtgBYl,conj,m,sim_conj_m,1,1.521
no_gap,R_08x3yfNtCFtgBYl,conj,mm,sim_conj_mm,1,2.504
no_gap,R_08x3yfNtCFtgBYl,conj,mm,sim_conj_mm,0,1.477
no_gap,R_08x3yfNtCFtgBYl,conj,m,sim_conj_m,1,3.264
no_gap,R_08x3yfNtCFtgBYl,conj,m,sim_conj_m,1,1.538
no_gap,R_08x3yfNtCFtgBYl,conj,mm,sim_conj_mm,1,3.424
no_gap,R_08x3yfNtCFtgBYl,conj,mm,sim_conj_mm,1,4.29
no_gap,R_08x3yfNtCFtgBYl,conj,m,sim_conj_m,1,4.61
no_gap,R_08x3yfNtCFtgBYl,conj,m,sim_conj_m,1,2.024
no_gap,R_08x3yfNtCFtgBYl,conj,mm,sim_conj_mm,1,2.031
no_gap,R_08x3yfNtCFtgBYl,conj,mm,sim_conj_mm,1,1.553
no_gap,R_08x3yfNtCFtgBYl,conj,m,sim_conj_m,1,2.727
no_gap,R_08x3yfNtCFtgBYl,conj,m,sim_conj_m,1,1.555
no_gap,R_08x3yfNtCFtgBYl,conj,mm,sim_conj_mm,1,1.715
no_gap,R_08x3yfNtCFtgBYl,conj,mm,sim_conj_mm,1,1.563
no_gap,R_08x3yfNtCFtgBYl,sing,m,sim_sing_m,1,1.589
no_gap,R_08x3yfNtCFtgBYl,sing,m,sim_sing_m,1,2.234
no_gap,R_08x3yfNtCFtgBYl,sing,mm,sim_sing_mm,1,2.42
no_gap,R_08x3yfNtCFtgBYl,sing,mm,sim_sing_mm,1,4.708
no_gap,R_08x3yfNtCFtgBYl,sing,m,sim_sing_m,1,1.546
no_gap,R_08x3yfNtCFtgBYl,sing,m,sim_sing_m,1,1.557
no_gap,R_08x3yfNtCFtgBYl,sing,mm,sim_sing_mm,1,1.689
no_gap,R_08x3yfNtCFtgBYl,sing,mm,sim_sing_mm,1,1.788
no_gap,R_08x3yfNtCFtgBYl,sing,m,sim_sing_m,1,1.673
no_gap,R_08x3yfNtCFtgBYl,sing,m,sim_sing_m,1,1.649
no_gap,R_08x3yfNtCFtgBYl,sing,mm,sim_sing_mm,1,3.509
no_gap,R_08x3yfNtCFtgBYl,sing,mm,sim_sing_mm,1,2.075
no_gap,R_08x3yfNtCFtgBYl,sing,m,sim_sing_m,1,1.629
no_gap,R_08x3yfNtCFtgBYl,sing,m,sim_sing_m,1,2.528
no_gap,R_08x3yfNtCFtgBYl,sing,mm,sim_sing_mm,1,2.34
no_gap,R_08x3yfNtCFtgBYl,sing,mm,sim_sing_mm,1,1.529
no_gap,R_0OmSAzFURsT3hND,conj,m,sim_conj_m,1,0.984
no_gap,R_0OmSAzFURsT3hND,conj,m,sim_conj_m,1,0.518
no_gap,R_0OmSAzFURsT3hND,conj,mm,sim_conj_mm,1,0.559
no_gap,R_0OmSAzFURsT3hND,conj,mm,sim_conj_mm,0,0.665
no_gap,R_0OmSAzFURsT3hND,conj,m,sim_conj_m,1,0.891
no_gap,R_0OmSAzFURsT3hND,conj,m,sim_conj_m,1,0.482
no_gap,R_0OmSAzFURsT3hND,conj,mm,sim_conj_mm,1,1.159
no_gap,R_0OmSAzFURsT3hND,conj,mm,sim_conj_mm,1,0.763
no_gap,R_0OmSAzFURsT3hND,conj,m,sim_conj_m,1,0.814
no_gap,R_0OmSAzFURsT3hND,conj,m,sim_conj_m,1,0.749
no_gap,R_0OmSAzFURsT3hND,conj,mm,sim_conj_mm,1,0.749
no_gap,R_0OmSAzFURsT3hND,conj,mm,sim_conj_mm,1,0.854
no_gap,R_0OmSAzFURsT3hND,conj,m,sim_conj_m,1,0.783
no_gap,R_0OmSAzFURsT3hND,conj,m,sim_conj_m,1,0.597
no_gap,R_0OmSAzFURsT3hND,conj,mm,sim_conj_mm,1,0.535
no_gap,R_0OmSAzFURsT3hND,conj,mm,sim_conj_mm,1,0.538
no_gap,R_0OmSAzFURsT3hND,sing,m,sim_sing_m,1,0.946
no_gap,R_0OmSAzFURsT3hND,sing,m,sim_sing_m,1,1.181
no_gap,R_0OmSAzFURsT3hND,sing,mm,sim_sing_mm,1,1.695
no_gap,R_0OmSAzFURsT3hND,sing,mm,sim_sing_mm,1,1.58
no_gap,R_0OmSAzFURsT3hND,sing,m,sim_sing_m,1,0.818
no_gap,R_0OmSAzFURsT3hND,sing,m,sim_sing_m,1,0.857
no_gap,R_0OmSAzFURsT3hND,sing,mm,sim_sing_mm,1,1.908
no_gap,R_0OmSAzFURsT3hND,sing,mm,sim_sing_mm,1,0.952
no_gap,R_0OmSAzFURsT3hND,sing,m,sim_sing_m,1,0.752
no_gap,R_0OmSAzFURsT3hND,sing,m,sim_sing_m,1,1.221
no_gap,R_0OmSAzFURsT3hND,sing,mm,sim_sing_mm,1,0.962
no_gap,R_0OmSAzFURsT3hND,sing,mm,sim_sing_mm,1,1.261
no_gap,R_0OmSAzFURsT3hND,sing,m,sim_sing_m,1,1.472
no_gap,R_0OmSAzFURsT3hND,sing,m,sim_sing_m,1,1.039
no_gap,R_0OmSAzFURsT3hND,sing,mm,sim_sing_mm,1,0.892
no_gap,R_0OmSAzFURsT3hND,sing,mm,sim_sing_mm,1,1.132
no_gap,R0ZPMCCzcV8FG6A,conj,m,sim_conj_m,1,1.408
no_gap,R0ZPMCCzcV8FG6A,conj,m,sim_conj_m,1,0.947
no_gap,R0ZPMCCzcV8FG6A,conj,mm,sim_conj_mm,1,0.987
no_gap,R0ZPMCCzcV8FG6A,conj,mm,sim_conj_mm,1,0.825
no_gap,R0ZPMCCzcV8FG6A,conj,m,sim_conj_m,1,0.988
no_gap,R0ZPMCCzcV8FG6A,conj,m,sim_conj_m,1,1.242
no_gap,R0ZPMCCzcV8FG6A,conj,mm,sim_conj_mm,1,0.832
no_gap,R0ZPMCCzcV8FG6A,conj,mm,sim_conj_mm,1,0.714
no_gap,R0ZPMCCzcV8FG6A,conj,m,sim_conj_m,1,1.214
no_gap,R0ZPMCCzcV8FG6A,conj,m,sim_conj_m,1,1.237
no_gap,R0ZPMCCzcV8FG6A,conj,mm,sim_conj_mm,1,0.925
no_gap,R0ZPMCCzcV8FG6A,conj,mm,sim_conj_mm,1,0.71
no_gap,R0ZPMCCzcV8FG6A,conj,m,sim_conj_m,1,1.332
no_gap,R0ZPMCCzcV8FG6A,conj,m,sim_conj_m,1,1.123
no_gap,R0ZPMCCzcV8FG6A,conj,mm,sim_conj_mm,1,0.75
no_gap,R0ZPMCCzcV8FG6A,conj,mm,sim_conj_mm,1,0.602
no_gap,R0ZPMCCzcV8FG6A,sing,m,sim_sing_m,1,0.914
no_gap,R0ZPMCCzcV8FG6A,sing,m,sim_sing_m,1,1.326
no_gap,R0ZPMCCzcV8FG6A,sing,mm,sim_sing_mm,1,0.648
no_gap,R0ZPMCCzcV8FG6A,sing,mm,sim_sing_mm,1,0.732
no_gap,R0ZPMCCzcV8FG6A,sing,m,sim_sing_m,1,0.971
no_gap,R0ZPMCCzcV8FG6A,sing,m,sim_sing_m,1,1.527
no_gap,R0ZPMCCzcV8FG6A,sing,mm,sim_sing_mm,1,0.744
no_gap,R0ZPMCCzcV8FG6A,sing,mm,sim_sing_mm,1,0.635
no_gap,R0ZPMCCzcV8FG6A,sing,m,sim_sing_m,1,1.046
no_gap,R0ZPMCCzcV8FG6A,sing,m,sim_sing_m,1,1.631
no_gap,R0ZPMCCzcV8FG6A,sing,mm,sim_sing_mm,1,0.93
no_gap,R0ZPMCCzcV8FG6A,sing,mm,sim_sing_mm,1,0.883
no_gap,R0ZPMCCzcV8FG6A,sing,m,sim_sing_m,1,1.181
no_gap,R0ZPMCCzcV8FG6A,sing,m,sim_sing_m,1,1.064
no_gap,R0ZPMCCzcV8FG6A,sing,mm,sim_sing_mm,1,0.583
no_gap,R0ZPMCCzcV8FG6A,sing,mm,sim_sing_mm,1,0.77
no_gap,R2s68Ligswec1t3,conj,m,sim_conj_m,1,0.548
no_gap,R2s68Ligswec1t3,conj,m,sim_conj_m,0,0.798
no_gap,R2s68Ligswec1t3,conj,mm,sim_conj_mm,1,0.499
no_gap,R2s68Ligswec1t3,conj,mm,sim_conj_mm,1,0.534
no_gap,R2s68Ligswec1t3,conj,m,sim_conj_m,1,0.502
no_gap,R2s68Ligswec1t3,conj,m,sim_conj_m,1,0.553
no_gap,R2s68Ligswec1t3,conj,mm,sim_conj_mm,1,0.548
no_gap,R2s68Ligswec1t3,conj,mm,sim_conj_mm,1,0.502
no_gap,R2s68Ligswec1t3,conj,m,sim_conj_m,1,0.528
no_gap,R2s68Ligswec1t3,conj,m,sim_conj_m,1,0.57
no_gap,R2s68Ligswec1t3,conj,mm,sim_conj_mm,1,0.643
no_gap,R2s68Ligswec1t3,conj,mm,sim_conj_mm,1,0.515
no_gap,R2s68Ligswec1t3,conj,m,sim_conj_m,1,0.442
no_gap,R2s68Ligswec1t3,conj,m,sim_conj_m,1,0.503
no_gap,R2s68Ligswec1t3,conj,mm,sim_conj_mm,1,0.463
no_gap,R2s68Ligswec1t3,conj,mm,sim_conj_mm,1,0.633
no_gap,R2s68Ligswec1t3,sing,m,sim_sing_m,1,0.459
no_gap,R2s68Ligswec1t3,sing,m,sim_sing_m,1,1.04
no_gap,R2s68Ligswec1t3,sing,mm,sim_sing_mm,1,0.481
no_gap,R2s68Ligswec1t3,sing,mm,sim_sing_mm,1,0.618
no_gap,R2s68Ligswec1t3,sing,m,sim_sing_m,1,0.43
no_gap,R2s68Ligswec1t3,sing,m,sim_sing_m,1,0.701
no_gap,R2s68Ligswec1t3,sing,mm,sim_sing_mm,1,0.436
no_gap,R2s68Ligswec1t3,sing,mm,sim_sing_mm,1,0.58
no_gap,R2s68Ligswec1t3,sing,m,sim_sing_m,1,0.565
no_gap,R2s68Ligswec1t3,sing,m,sim_sing_m,1,0.86
no_gap,R2s68Ligswec1t3,sing,mm,sim_sing_mm,1,0.54
no_gap,R2s68Ligswec1t3,sing,mm,sim_sing_mm,1,0.585
no_gap,R2s68Ligswec1t3,sing,m,sim_sing_m,1,0.521
no_gap,R2s68Ligswec1t3,sing,m,sim_sing_m,1,0.44
no_gap,R2s68Ligswec1t3,sing,mm,sim_sing_mm,1,0.427
no_gap,R2s68Ligswec1t3,sing,mm,sim_sing_mm,1,0.74
no_gap,RBPAkPhD282eIwa,conj,m,sim_conj_m,1,0.778
no_gap,RBPAkPhD282eIwa,conj,m,sim_conj_m,1,1.143
no_gap,RBPAkPhD282eIwa,conj,mm,sim_conj_mm,1,0.683
no_gap,RBPAkPhD282eIwa,conj,mm,sim_conj_mm,1,1.137
no_gap,RBPAkPhD282eIwa,conj,m,sim_conj_m,1,0.648
no_gap,RBPAkPhD282eIwa,conj,m,sim_conj_m,1,0.822
no_gap,RBPAkPhD282eIwa,conj,mm,sim_conj_mm,1,0.584
no_gap,RBPAkPhD282eIwa,conj,mm,sim_conj_mm,1,0.871
no_gap,RBPAkPhD282eIwa,conj,m,sim_conj_m,1,0.799
no_gap,RBPAkPhD282eIwa,conj,m,sim_conj_m,1,0.809
no_gap,RBPAkPhD282eIwa,conj,mm,sim_conj_mm,1,0.714
no_gap,RBPAkPhD282eIwa,conj,mm,sim_conj_mm,1,0.998
no_gap,RBPAkPhD282eIwa,conj,m,sim_conj_m,1,1.178
no_gap,RBPAkPhD282eIwa,conj,m,sim_conj_m,1,0.635
no_gap,RBPAkPhD282eIwa,conj,mm,sim_conj_mm,1,0.785
no_gap,RBPAkPhD282eIwa,conj,mm,sim_conj_mm,1,0.881
no_gap,RBPAkPhD282eIwa,sing,m,sim_sing_m,1,1.067
no_gap,RBPAkPhD282eIwa,sing,m,sim_sing_m,1,1.515
no_gap,RBPAkPhD282eIwa,sing,mm,sim_sing_mm,1,1.031
no_gap,RBPAkPhD282eIwa,sing,mm,sim_sing_mm,1,0.838
no_gap,RBPAkPhD282eIwa,sing,m,sim_sing_m,1,1.106
no_gap,RBPAkPhD282eIwa,sing,m,sim_sing_m,1,0.704
no_gap,RBPAkPhD282eIwa,sing,mm,sim_sing_mm,1,1.942
no_gap,RBPAkPhD282eIwa,sing,mm,sim_sing_mm,1,0.563
no_gap,RBPAkPhD282eIwa,sing,m,sim_sing_m,1,0.647
no_gap,RBPAkPhD282eIwa,sing,m,sim_sing_m,1,0.904
no_gap,RBPAkPhD282eIwa,sing,mm,sim_sing_mm,1,0.786
no_gap,RBPAkPhD282eIwa,sing,mm,sim_sing_mm,1,0.76
no_gap,RBPAkPhD282eIwa,sing,m,sim_sing_m,1,1.072
no_gap,RBPAkPhD282eIwa,sing,m,sim_sing_m,1,0.602
no_gap,RBPAkPhD282eIwa,sing,mm,sim_sing_mm,1,0.718
no_gap,RBPAkPhD282eIwa,sing,mm,sim_sing_mm,1,0.693
no_gap,RCDQa7qsN9RNzFH,conj,m,sim_conj_m,1,0.643
no_gap,RCDQa7qsN9RNzFH,conj,m,sim_conj_m,1,0.71
no_gap,RCDQa7qsN9RNzFH,conj,mm,sim_conj_mm,1,1.316
no_gap,RCDQa7qsN9RNzFH,conj,mm,sim_conj_mm,1,0.748
no_gap,RCDQa7qsN9RNzFH,conj,m,sim_conj_m,1,1.037
no_gap,RCDQa7qsN9RNzFH,conj,m,sim_conj_m,1,0.784
no_gap,RCDQa7qsN9RNzFH,conj,mm,sim_conj_mm,1,1.321
no_gap,RCDQa7qsN9RNzFH,conj,mm,sim_conj_mm,1,0.782
no_gap,RCDQa7qsN9RNzFH,conj,m,sim_conj_m,1,1.072
no_gap,RCDQa7qsN9RNzFH,conj,m,sim_conj_m,1,1.697
no_gap,RCDQa7qsN9RNzFH,conj,mm,sim_conj_mm,1,1.371
no_gap,RCDQa7qsN9RNzFH,conj,mm,sim_conj_mm,1,1.524
no_gap,RCDQa7qsN9RNzFH,conj,m,sim_conj_m,1,0.571
no_gap,RCDQa7qsN9RNzFH,conj,m,sim_conj_m,1,2.623
no_gap,RCDQa7qsN9RNzFH,conj,mm,sim_conj_mm,1,0.776
no_gap,RCDQa7qsN9RNzFH,conj,mm,sim_conj_mm,1,1.143
no_gap,RCDQa7qsN9RNzFH,sing,m,sim_sing_m,1,1.868
no_gap,RCDQa7qsN9RNzFH,sing,m,sim_sing_m,1,0.806
no_gap,RCDQa7qsN9RNzFH,sing,mm,sim_sing_mm,1,1.598
no_gap,RCDQa7qsN9RNzFH,sing,mm,sim_sing_mm,1,1.399
no_gap,RCDQa7qsN9RNzFH,sing,m,sim_sing_m,1,1.506
no_gap,RCDQa7qsN9RNzFH,sing,m,sim_sing_m,1,1.115
no_gap,RCDQa7qsN9RNzFH,sing,mm,sim_sing_mm,1,0.995
no_gap,RCDQa7qsN9RNzFH,sing,mm,sim_sing_mm,1,1.227
no_gap,RCDQa7qsN9RNzFH,sing,m,sim_sing_m,1,1.316
no_gap,RCDQa7qsN9RNzFH,sing,m,sim_sing_m,1,0.798
no_gap,RCDQa7qsN9RNzFH,sing,mm,sim_sing_mm,1,1.947
no_gap,RCDQa7qsN9RNzFH,sing,mm,sim_sing_mm,1,0.7
no_gap,RCDQa7qsN9RNzFH,sing,m,sim_sing_m,1,1.643
no_gap,RCDQa7qsN9RNzFH,sing,m,sim_sing_m,1,1.288
no_gap,RCDQa7qsN9RNzFH,sing,mm,sim_sing_mm,1,1.692
no_gap,RCDQa7qsN9RNzFH,sing,mm,sim_sing_mm,1,0.855
no_gap,RCJcSTbRoTUCqgI,conj,m,sim_conj_m,1,1.094
no_gap,RCJcSTbRoTUCqgI,conj,m,sim_conj_m,1,0.624
no_gap,RCJcSTbRoTUCqgI,conj,mm,sim_conj_mm,1,0.891
no_gap,RCJcSTbRoTUCqgI,conj,mm,sim_conj_mm,1,0.933
no_gap,RCJcSTbRoTUCqgI,conj,m,sim_conj_m, , 
no_gap,RCJcSTbRoTUCqgI,conj,m,sim_conj_m,1,1.172
no_gap,RCJcSTbRoTUCqgI,conj,mm,sim_conj_mm,1,0.876
no_gap,RCJcSTbRoTUCqgI,conj,mm,sim_conj_mm,1,0.926
no_gap,RCJcSTbRoTUCqgI,conj,m,sim_conj_m,1,0.917
no_gap,RCJcSTbRoTUCqgI,conj,m,sim_conj_m,1,0.606
no_gap,RCJcSTbRoTUCqgI,conj,mm,sim_conj_mm,1,0.95
no_gap,RCJcSTbRoTUCqgI,conj,mm,sim_conj_mm,1,1.867
no_gap,RCJcSTbRoTUCqgI,conj,m,sim_conj_m,1,1.138
no_gap,RCJcSTbRoTUCqgI,conj,m,sim_conj_m,1,1.315
no_gap,RCJcSTbRoTUCqgI,conj,mm,sim_conj_mm,1,1.566
no_gap,RCJcSTbRoTUCqgI,conj,mm,sim_conj_mm,1,0.916
no_gap,RCJcSTbRoTUCqgI,sing,m,sim_sing_m,0,1.73
no_gap,RCJcSTbRoTUCqgI,sing,m,sim_sing_m,1,1.047
no_gap,RCJcSTbRoTUCqgI,sing,mm,sim_sing_mm,1,1.658
no_gap,RCJcSTbRoTUCqgI,sing,mm,sim_sing_mm,1,1.298
no_gap,RCJcSTbRoTUCqgI,sing,m,sim_sing_m,1,0.937
no_gap,RCJcSTbRoTUCqgI,sing,m,sim_sing_m,1,0.669
no_gap,RCJcSTbRoTUCqgI,sing,mm,sim_sing_mm,1,1.263
no_gap,RCJcSTbRoTUCqgI,sing,mm,sim_sing_mm,1,0.828
no_gap,RCJcSTbRoTUCqgI,sing,m,sim_sing_m,1,1.949
no_gap,RCJcSTbRoTUCqgI,sing,m,sim_sing_m,1,0.704
no_gap,RCJcSTbRoTUCqgI,sing,mm,sim_sing_mm,1,1.667
no_gap,RCJcSTbRoTUCqgI,sing,mm,sim_sing_mm,1,0.824
no_gap,RCJcSTbRoTUCqgI,sing,m,sim_sing_m,1,0.725
no_gap,RCJcSTbRoTUCqgI,sing,m,sim_sing_m,1,1.035
no_gap,RCJcSTbRoTUCqgI,sing,mm,sim_sing_mm,0,3.229
no_gap,RCJcSTbRoTUCqgI,sing,mm,sim_sing_mm,1,1.428
no_gap,RcUmxE0nB0eQ5tx,conj,m,sim_conj_m,1,0.751
no_gap,RcUmxE0nB0eQ5tx,conj,m,sim_conj_m,1,0.812
no_gap,RcUmxE0nB0eQ5tx,conj,mm,sim_conj_mm,1,1.357
no_gap,RcUmxE0nB0eQ5tx,conj,mm,sim_conj_mm,1,1.283
no_gap,RcUmxE0nB0eQ5tx,conj,m,sim_conj_m,1,1.413
no_gap,RcUmxE0nB0eQ5tx,conj,m,sim_conj_m,1,0.584
no_gap,RcUmxE0nB0eQ5tx,conj,mm,sim_conj_mm,1,0.776
no_gap,RcUmxE0nB0eQ5tx,conj,mm,sim_conj_mm,1,1.14
no_gap,RcUmxE0nB0eQ5tx,conj,m,sim_conj_m,1,0.876
no_gap,RcUmxE0nB0eQ5tx,conj,m,sim_conj_m,1,0.912
no_gap,RcUmxE0nB0eQ5tx,conj,mm,sim_conj_mm,1,2.194
no_gap,RcUmxE0nB0eQ5tx,conj,mm,sim_conj_mm,1,1.113
no_gap,RcUmxE0nB0eQ5tx,conj,m,sim_conj_m,1,0.772
no_gap,RcUmxE0nB0eQ5tx,conj,m,sim_conj_m,1,0.663
no_gap,RcUmxE0nB0eQ5tx,conj,mm,sim_conj_mm,1,0.937
no_gap,RcUmxE0nB0eQ5tx,conj,mm,sim_conj_mm,1,0.815
no_gap,RcUmxE0nB0eQ5tx,sing,m,sim_sing_m,1,1.136
no_gap,RcUmxE0nB0eQ5tx,sing,m,sim_sing_m,1,0.675
no_gap,RcUmxE0nB0eQ5tx,sing,mm,sim_sing_mm,1,0.668
no_gap,RcUmxE0nB0eQ5tx,sing,mm,sim_sing_mm,1,0.995
no_gap,RcUmxE0nB0eQ5tx,sing,m,sim_sing_m,1,1.364
no_gap,RcUmxE0nB0eQ5tx,sing,m,sim_sing_m,1,0.873
no_gap,RcUmxE0nB0eQ5tx,sing,mm,sim_sing_mm,1,0.811
no_gap,RcUmxE0nB0eQ5tx,sing,mm,sim_sing_mm,1,0.875
no_gap,RcUmxE0nB0eQ5tx,sing,m,sim_sing_m,1,0.973
no_gap,RcUmxE0nB0eQ5tx,sing,m,sim_sing_m,1,1.227
no_gap,RcUmxE0nB0eQ5tx,sing,mm,sim_sing_mm,1,0.922
no_gap,RcUmxE0nB0eQ5tx,sing,mm,sim_sing_mm,1,1.248
no_gap,RcUmxE0nB0eQ5tx,sing,m,sim_sing_m,1,1.177
no_gap,RcUmxE0nB0eQ5tx,sing,m,sim_sing_m,1,1.469
no_gap,RcUmxE0nB0eQ5tx,sing,mm,sim_sing_mm,1,0.767
no_gap,RcUmxE0nB0eQ5tx,sing,mm,sim_sing_mm,1,1.845
no_gap,RcUnP5PoHL3kGw8,conj,m,sim_conj_m,1,1.202
no_gap,RcUnP5PoHL3kGw8,conj,m,sim_conj_m,1,1.401
no_gap,RcUnP5PoHL3kGw8,conj,mm,sim_conj_mm,1,0.978
no_gap,RcUnP5PoHL3kGw8,conj,mm,sim_conj_mm,1,1.654
no_gap,RcUnP5PoHL3kGw8,conj,m,sim_conj_m,1,1.483
no_gap,RcUnP5PoHL3kGw8,conj,m,sim_conj_m,1,0.99
no_gap,RcUnP5PoHL3kGw8,conj,mm,sim_conj_mm,1,1.102
no_gap,RcUnP5PoHL3kGw8,conj,mm,sim_conj_mm,1,1.151
no_gap,RcUnP5PoHL3kGw8,conj,m,sim_conj_m,1,1.614
no_gap,RcUnP5PoHL3kGw8,conj,m,sim_conj_m,1,0.715
no_gap,RcUnP5PoHL3kGw8,conj,mm,sim_conj_mm,1,0.94
no_gap,RcUnP5PoHL3kGw8,conj,mm,sim_conj_mm,1,0.968
no_gap,RcUnP5PoHL3kGw8,conj,m,sim_conj_m,1,0.999
no_gap,RcUnP5PoHL3kGw8,conj,m,sim_conj_m,1,0.948
no_gap,RcUnP5PoHL3kGw8,conj,mm,sim_conj_mm,1,0.908
no_gap,RcUnP5PoHL3kGw8,conj,mm,sim_conj_mm,1,0.977
no_gap,RcUnP5PoHL3kGw8,sing,m,sim_sing_m,1,0.798
no_gap,RcUnP5PoHL3kGw8,sing,m,sim_sing_m,1,1.358
no_gap,RcUnP5PoHL3kGw8,sing,mm,sim_sing_mm,0,1.303
no_gap,RcUnP5PoHL3kGw8,sing,mm,sim_sing_mm,1,1.696
no_gap,RcUnP5PoHL3kGw8,sing,m,sim_sing_m,0,1.262
no_gap,RcUnP5PoHL3kGw8,sing,m,sim_sing_m,1,0.853
no_gap,RcUnP5PoHL3kGw8,sing,mm,sim_sing_mm,1,1.205
no_gap,RcUnP5PoHL3kGw8,sing,mm,sim_sing_mm,1,0.991
no_gap,RcUnP5PoHL3kGw8,sing,m,sim_sing_m,1,1.58
no_gap,RcUnP5PoHL3kGw8,sing,m,sim_sing_m,1,1.056
no_gap,RcUnP5PoHL3kGw8,sing,mm,sim_sing_mm,1,0.66
no_gap,RcUnP5PoHL3kGw8,sing,mm,sim_sing_mm,1,0.832
no_gap,RcUnP5PoHL3kGw8,sing,m,sim_sing_m,1,0.918
no_gap,RcUnP5PoHL3kGw8,sing,m,sim_sing_m,1,1.112
no_gap,RcUnP5PoHL3kGw8,sing,mm,sim_sing_mm,1,1.394
no_gap,RcUnP5PoHL3kGw8,sing,mm,sim_sing_mm,1,2.129
no_gap,RcZYqPuI2ovCe8d,conj,m,sim_conj_m,1,0.661
no_gap,RcZYqPuI2ovCe8d,conj,m,sim_conj_m,1,0.381
no_gap,RcZYqPuI2ovCe8d,conj,mm,sim_conj_mm,1,0.715
no_gap,RcZYqPuI2ovCe8d,conj,mm,sim_conj_mm,1,0.467
no_gap,RcZYqPuI2ovCe8d,conj,m,sim_conj_m,1,0.602
no_gap,RcZYqPuI2ovCe8d,conj,m,sim_conj_m,0,0.634
no_gap,RcZYqPuI2ovCe8d,conj,mm,sim_conj_mm,1,0.762
no_gap,RcZYqPuI2ovCe8d,conj,mm,sim_conj_mm,1,0.36
no_gap,RcZYqPuI2ovCe8d,conj,m,sim_conj_m,0,1.223
no_gap,RcZYqPuI2ovCe8d,conj,m,sim_conj_m,1,0.488
no_gap,RcZYqPuI2ovCe8d,conj,mm,sim_conj_mm,1,0.455
no_gap,RcZYqPuI2ovCe8d,conj,mm,sim_conj_mm,1,0.723
no_gap,RcZYqPuI2ovCe8d,conj,m,sim_conj_m,1,0.837
no_gap,RcZYqPuI2ovCe8d,conj,m,sim_conj_m,1,0.44
no_gap,RcZYqPuI2ovCe8d,conj,mm,sim_conj_mm,1,1.029
no_gap,RcZYqPuI2ovCe8d,conj,mm,sim_conj_mm,1,0.72
no_gap,RcZYqPuI2ovCe8d,sing,m,sim_sing_m,1,1.031
no_gap,RcZYqPuI2ovCe8d,sing,m,sim_sing_m,1,1.698
no_gap,RcZYqPuI2ovCe8d,sing,mm,sim_sing_mm,1,1.966
no_gap,RcZYqPuI2ovCe8d,sing,mm,sim_sing_mm,1,1.052
no_gap,RcZYqPuI2ovCe8d,sing,m,sim_sing_m,1,2.038
no_gap,RcZYqPuI2ovCe8d,sing,m,sim_sing_m,1,0.938
no_gap,RcZYqPuI2ovCe8d,sing,mm,sim_sing_mm,1,0.932
no_gap,RcZYqPuI2ovCe8d,sing,mm,sim_sing_mm,1,1.791
no_gap,RcZYqPuI2ovCe8d,sing,m,sim_sing_m,1,5.915
no_gap,RcZYqPuI2ovCe8d,sing,m,sim_sing_m,1,1.283
no_gap,RcZYqPuI2ovCe8d,sing,mm,sim_sing_mm,1,1.21
no_gap,RcZYqPuI2ovCe8d,sing,mm,sim_sing_mm,1,0.668
no_gap,RcZYqPuI2ovCe8d,sing,m,sim_sing_m,1,1.181
no_gap,RcZYqPuI2ovCe8d,sing,m,sim_sing_m,1,1.686
no_gap,RcZYqPuI2ovCe8d,sing,mm,sim_sing_mm,1,2.176
no_gap,RcZYqPuI2ovCe8d,sing,mm,sim_sing_mm,1,3.413
no_gap,RDuNzuDT2Ly6aYo,conj,m,sim_conj_m,1,0.836
no_gap,RDuNzuDT2Ly6aYo,conj,m,sim_conj_m,1,1.277
no_gap,RDuNzuDT2Ly6aYo,conj,mm,sim_conj_mm,1,0.794
no_gap,RDuNzuDT2Ly6aYo,conj,mm,sim_conj_mm,1,0.885
no_gap,RDuNzuDT2Ly6aYo,conj,m,sim_conj_m,1,1.28
no_gap,RDuNzuDT2Ly6aYo,conj,m,sim_conj_m,1,0.815
no_gap,RDuNzuDT2Ly6aYo,conj,mm,sim_conj_mm,1,0.802
no_gap,RDuNzuDT2Ly6aYo,conj,mm,sim_conj_mm,1,0.967
no_gap,RDuNzuDT2Ly6aYo,conj,m,sim_conj_m,1,1.383
no_gap,RDuNzuDT2Ly6aYo,conj,m,sim_conj_m,1,1.344
no_gap,RDuNzuDT2Ly6aYo,conj,mm,sim_conj_mm,1,1.225
no_gap,RDuNzuDT2Ly6aYo,conj,mm,sim_conj_mm,1,1.297
no_gap,RDuNzuDT2Ly6aYo,conj,m,sim_conj_m,1,0.983
no_gap,RDuNzuDT2Ly6aYo,conj,m,sim_conj_m,1,0.755
no_gap,RDuNzuDT2Ly6aYo,conj,mm,sim_conj_mm,1,0.88
no_gap,RDuNzuDT2Ly6aYo,conj,mm,sim_conj_mm,1,1.032
no_gap,RDuNzuDT2Ly6aYo,sing,m,sim_sing_m,1,0.678
no_gap,RDuNzuDT2Ly6aYo,sing,m,sim_sing_m,1,0.707
no_gap,RDuNzuDT2Ly6aYo,sing,mm,sim_sing_mm,1,0.927
no_gap,RDuNzuDT2Ly6aYo,sing,mm,sim_sing_mm,1,0.735
no_gap,RDuNzuDT2Ly6aYo,sing,m,sim_sing_m,1,1.046
no_gap,RDuNzuDT2Ly6aYo,sing,m,sim_sing_m,1,0.64
no_gap,RDuNzuDT2Ly6aYo,sing,mm,sim_sing_mm,1,1.362
no_gap,RDuNzuDT2Ly6aYo,sing,mm,sim_sing_mm,1,0.855
no_gap,RDuNzuDT2Ly6aYo,sing,m,sim_sing_m,1,1.107
no_gap,RDuNzuDT2Ly6aYo,sing,m,sim_sing_m,1,0.935
no_gap,RDuNzuDT2Ly6aYo,sing,mm,sim_sing_mm,1,0.909
no_gap,RDuNzuDT2Ly6aYo,sing,mm,sim_sing_mm,1,1.46
no_gap,RDuNzuDT2Ly6aYo,sing,m,sim_sing_m,1,1.344
no_gap,RDuNzuDT2Ly6aYo,sing,m,sim_sing_m,1,0.767
no_gap,RDuNzuDT2Ly6aYo,sing,mm,sim_sing_mm,1,1.789
no_gap,RDuNzuDT2Ly6aYo,sing,mm,sim_sing_mm,1,1.099
no_gap,REj3yOyXSRu4rHj,conj,m,sim_conj_m,1,0.672
no_gap,REj3yOyXSRu4rHj,conj,m,sim_conj_m,1,0.275
no_gap,REj3yOyXSRu4rHj,conj,mm,sim_conj_mm,1,0.402
no_gap,REj3yOyXSRu4rHj,conj,mm,sim_conj_mm,1,0.514
no_gap,REj3yOyXSRu4rHj,conj,m,sim_conj_m,1,0.427
no_gap,REj3yOyXSRu4rHj,conj,m,sim_conj_m,1,0.285
no_gap,REj3yOyXSRu4rHj,conj,mm,sim_conj_mm,1,0.713
no_gap,REj3yOyXSRu4rHj,conj,mm,sim_conj_mm,1,0.534
no_gap,REj3yOyXSRu4rHj,conj,m,sim_conj_m,1,0.74
no_gap,REj3yOyXSRu4rHj,conj,m,sim_conj_m,1,0.378
no_gap,REj3yOyXSRu4rHj,conj,mm,sim_conj_mm,1,0.511
no_gap,REj3yOyXSRu4rHj,conj,mm,sim_conj_mm,0,0.412
no_gap,REj3yOyXSRu4rHj,conj,m,sim_conj_m,1,0.433
no_gap,REj3yOyXSRu4rHj,conj,m,sim_conj_m,1,0.31
no_gap,REj3yOyXSRu4rHj,conj,mm,sim_conj_mm,1,0.497
no_gap,REj3yOyXSRu4rHj,conj,mm,sim_conj_mm,1,0.309
no_gap,REj3yOyXSRu4rHj,sing,m,sim_sing_m,1,0.332
no_gap,REj3yOyXSRu4rHj,sing,m,sim_sing_m,1,0.497
no_gap,REj3yOyXSRu4rHj,sing,mm,sim_sing_mm,1,0.5
no_gap,REj3yOyXSRu4rHj,sing,mm,sim_sing_mm,1,0.919
no_gap,REj3yOyXSRu4rHj,sing,m,sim_sing_m,1,0.498
no_gap,REj3yOyXSRu4rHj,sing,m,sim_sing_m,1,1.095
no_gap,REj3yOyXSRu4rHj,sing,mm,sim_sing_mm,1,0.418
no_gap,REj3yOyXSRu4rHj,sing,mm,sim_sing_mm,1,0.599
no_gap,REj3yOyXSRu4rHj,sing,m,sim_sing_m,1,0.315
no_gap,REj3yOyXSRu4rHj,sing,m,sim_sing_m,1,1.179
no_gap,REj3yOyXSRu4rHj,sing,mm,sim_sing_mm,1,0.669
no_gap,REj3yOyXSRu4rHj,sing,mm,sim_sing_mm,1,0.677
no_gap,REj3yOyXSRu4rHj,sing,m,sim_sing_m,1,0.499
no_gap,REj3yOyXSRu4rHj,sing,m,sim_sing_m,1,0.399
no_gap,REj3yOyXSRu4rHj,sing,mm,sim_sing_mm,1,0.467
no_gap,REj3yOyXSRu4rHj,sing,mm,sim_sing_mm,1,0.658
no_gap,ReK9C4dUWMG5UoE,conj,m,sim_conj_m,1,0.555
no_gap,ReK9C4dUWMG5UoE,conj,m,sim_conj_m,1,0.465
no_gap,ReK9C4dUWMG5UoE,conj,mm,sim_conj_mm,1,0.777
no_gap,ReK9C4dUWMG5UoE,conj,mm,sim_conj_mm,1,0.491
no_gap,ReK9C4dUWMG5UoE,conj,m,sim_conj_m,1,0.695
no_gap,ReK9C4dUWMG5UoE,conj,m,sim_conj_m,1,0.809
no_gap,ReK9C4dUWMG5UoE,conj,mm,sim_conj_mm,1,0.468
no_gap,ReK9C4dUWMG5UoE,conj,mm,sim_conj_mm,1,0.51
no_gap,ReK9C4dUWMG5UoE,conj,m,sim_conj_m,1,0.395
no_gap,ReK9C4dUWMG5UoE,conj,m,sim_conj_m,1,0.507
no_gap,ReK9C4dUWMG5UoE,conj,mm,sim_conj_mm,1,0.617
no_gap,ReK9C4dUWMG5UoE,conj,mm,sim_conj_mm,1,0.542
no_gap,ReK9C4dUWMG5UoE,conj,m,sim_conj_m,1,0.653
no_gap,ReK9C4dUWMG5UoE,conj,m,sim_conj_m,1,0.494
no_gap,ReK9C4dUWMG5UoE,conj,mm,sim_conj_mm,1,0.45
no_gap,ReK9C4dUWMG5UoE,conj,mm,sim_conj_mm,1,0.467
no_gap,ReK9C4dUWMG5UoE,sing,m,sim_sing_m,1,0.55
no_gap,ReK9C4dUWMG5UoE,sing,m,sim_sing_m,1,0.421
no_gap,ReK9C4dUWMG5UoE,sing,mm,sim_sing_mm,1,0.994
no_gap,ReK9C4dUWMG5UoE,sing,mm,sim_sing_mm,1,0.645
no_gap,ReK9C4dUWMG5UoE,sing,m,sim_sing_m,1,0.416
no_gap,ReK9C4dUWMG5UoE,sing,m,sim_sing_m,1,0.431
no_gap,ReK9C4dUWMG5UoE,sing,mm,sim_sing_mm,1,1.122
no_gap,ReK9C4dUWMG5UoE,sing,mm,sim_sing_mm,1,0.483
no_gap,ReK9C4dUWMG5UoE,sing,m,sim_sing_m,1,0.401
no_gap,ReK9C4dUWMG5UoE,sing,m,sim_sing_m,1,0.45
no_gap,ReK9C4dUWMG5UoE,sing,mm,sim_sing_mm,1,0.49
no_gap,ReK9C4dUWMG5UoE,sing,mm,sim_sing_mm,1,0.941
no_gap,ReK9C4dUWMG5UoE,sing,m,sim_sing_m,1,0.592
no_gap,ReK9C4dUWMG5UoE,sing,m,sim_sing_m,1,0.575
no_gap,ReK9C4dUWMG5UoE,sing,mm,sim_sing_mm,1,1.003
no_gap,ReK9C4dUWMG5UoE,sing,mm,sim_sing_mm,1,0.495
no_gap,Rerta2V92H4drrE,conj,m,sim_conj_m,1,1.138
no_gap,Rerta2V92H4drrE,conj,m,sim_conj_m,1,1.329
no_gap,Rerta2V92H4drrE,conj,mm,sim_conj_mm,0,1.338
no_gap,Rerta2V92H4drrE,conj,mm,sim_conj_mm,1,1.595
no_gap,Rerta2V92H4drrE,conj,m,sim_conj_m,1,1.04
no_gap,Rerta2V92H4drrE,conj,m,sim_conj_m,1,0.628
no_gap,Rerta2V92H4drrE,conj,mm,sim_conj_mm,1,0.78
no_gap,Rerta2V92H4drrE,conj,mm,sim_conj_mm,1,1.431
no_gap,Rerta2V92H4drrE,conj,m,sim_conj_m,1,1.922
no_gap,Rerta2V92H4drrE,conj,m,sim_conj_m,1,0.622
no_gap,Rerta2V92H4drrE,conj,mm,sim_conj_mm,1,1.401
no_gap,Rerta2V92H4drrE,conj,mm,sim_conj_mm,1,0.674
no_gap,Rerta2V92H4drrE,conj,m,sim_conj_m,1,0.004
no_gap,Rerta2V92H4drrE,conj,m,sim_conj_m,1,1.141
no_gap,Rerta2V92H4drrE,conj,mm,sim_conj_mm,1,1.991
no_gap,Rerta2V92H4drrE,conj,mm,sim_conj_mm,1,7.751
no_gap,Rerta2V92H4drrE,sing,m,sim_sing_m,0,5.036
no_gap,Rerta2V92H4drrE,sing,m,sim_sing_m,0,0.3
no_gap,Rerta2V92H4drrE,sing,mm,sim_sing_mm,1,1.642
no_gap,Rerta2V92H4drrE,sing,mm,sim_sing_mm,1,22.991
no_gap,Rerta2V92H4drrE,sing,m,sim_sing_m,0,52.691
no_gap,Rerta2V92H4drrE,sing,m,sim_sing_m,0,0.829
no_gap,Rerta2V92H4drrE,sing,mm,sim_sing_mm,1,1.221
no_gap,Rerta2V92H4drrE,sing,mm,sim_sing_mm,1,1.281
no_gap,Rerta2V92H4drrE,sing,m,sim_sing_m,1,2.63
no_gap,Rerta2V92H4drrE,sing,m,sim_sing_m,0,9.332
no_gap,Rerta2V92H4drrE,sing,mm,sim_sing_mm,1,6.486
no_gap,Rerta2V92H4drrE,sing,mm,sim_sing_mm,1,3.528
no_gap,Rerta2V92H4drrE,sing,m,sim_sing_m,1,1.352
no_gap,Rerta2V92H4drrE,sing,m,sim_sing_m,0,1.531
no_gap,Rerta2V92H4drrE,sing,mm,sim_sing_mm,1,1.867
no_gap,Rerta2V92H4drrE,sing,mm,sim_sing_mm,1,0.031
no_gap,Rex76BKICzdLpi3,conj,m,sim_conj_m,1,1.012
no_gap,Rex76BKICzdLpi3,conj,m,sim_conj_m,1,0.742
no_gap,Rex76BKICzdLpi3,conj,mm,sim_conj_mm,1,0.898
no_gap,Rex76BKICzdLpi3,conj,mm,sim_conj_mm,1,1.044
no_gap,Rex76BKICzdLpi3,conj,m,sim_conj_m,1,0.662
no_gap,Rex76BKICzdLpi3,conj,m,sim_conj_m,1,0.885
no_gap,Rex76BKICzdLpi3,conj,mm,sim_conj_mm,1,0.628
no_gap,Rex76BKICzdLpi3,conj,mm,sim_conj_mm,1,1.063
no_gap,Rex76BKICzdLpi3,conj,m,sim_conj_m,1,0.713
no_gap,Rex76BKICzdLpi3,conj,m,sim_conj_m,1,0.689
no_gap,Rex76BKICzdLpi3,conj,mm,sim_conj_mm,1,0.812
no_gap,Rex76BKICzdLpi3,conj,mm,sim_conj_mm,1,1.009
no_gap,Rex76BKICzdLpi3,conj,m,sim_conj_m,1,0.957
no_gap,Rex76BKICzdLpi3,conj,m,sim_conj_m,1,0.863
no_gap,Rex76BKICzdLpi3,conj,mm,sim_conj_mm,1,0.998
no_gap,Rex76BKICzdLpi3,conj,mm,sim_conj_mm,1,0.851
no_gap,Rex76BKICzdLpi3,sing,m,sim_sing_m,1,0.919
no_gap,Rex76BKICzdLpi3,sing,m,sim_sing_m,1,1.598
no_gap,Rex76BKICzdLpi3,sing,mm,sim_sing_mm,1,1.234
no_gap,Rex76BKICzdLpi3,sing,mm,sim_sing_mm,1,0.827
no_gap,Rex76BKICzdLpi3,sing,m,sim_sing_m,1,1.396
no_gap,Rex76BKICzdLpi3,sing,m,sim_sing_m,1,0.884
no_gap,Rex76BKICzdLpi3,sing,mm,sim_sing_mm,1,1.372
no_gap,Rex76BKICzdLpi3,sing,mm,sim_sing_mm,1,0.729
no_gap,Rex76BKICzdLpi3,sing,m,sim_sing_m,1,0.998
no_gap,Rex76BKICzdLpi3,sing,m,sim_sing_m,1,0.979
no_gap,Rex76BKICzdLpi3,sing,mm,sim_sing_mm,1,1.37
no_gap,Rex76BKICzdLpi3,sing,mm,sim_sing_mm,1,1.423
no_gap,Rex76BKICzdLpi3,sing,m,sim_sing_m,1,1.013
no_gap,Rex76BKICzdLpi3,sing,m,sim_sing_m,1,0.936
no_gap,Rex76BKICzdLpi3,sing,mm,sim_sing_mm,1,0.956
no_gap,Rex76BKICzdLpi3,sing,mm,sim_sing_mm,1,1.369
no_gap,RflJVVkbxzk1i5c,conj,m,sim_conj_m,1,0.519
no_gap,RflJVVkbxzk1i5c,conj,m,sim_conj_m,1,0.586
no_gap,RflJVVkbxzk1i5c,conj,mm,sim_conj_mm,1,0.548
no_gap,RflJVVkbxzk1i5c,conj,mm,sim_conj_mm,1,0.492
no_gap,RflJVVkbxzk1i5c,conj,m,sim_conj_m,1,0.509
no_gap,RflJVVkbxzk1i5c,conj,m,sim_conj_m,1,0.438
no_gap,RflJVVkbxzk1i5c,conj,mm,sim_conj_mm,1,0.452
no_gap,RflJVVkbxzk1i5c,conj,mm,sim_conj_mm,1,0.592
no_gap,RflJVVkbxzk1i5c,conj,m,sim_conj_m,1,0.44
no_gap,RflJVVkbxzk1i5c,conj,m,sim_conj_m,1,0.593
no_gap,RflJVVkbxzk1i5c,conj,mm,sim_conj_mm,1,0.427
no_gap,RflJVVkbxzk1i5c,conj,mm,sim_conj_mm,1,0.703
no_gap,RflJVVkbxzk1i5c,conj,m,sim_conj_m,1,0.606
no_gap,RflJVVkbxzk1i5c,conj,m,sim_conj_m,1,0.487
no_gap,RflJVVkbxzk1i5c,conj,mm,sim_conj_mm,1,0.532
no_gap,RflJVVkbxzk1i5c,conj,mm,sim_conj_mm,1,0.486
no_gap,RflJVVkbxzk1i5c,sing,m,sim_sing_m,1,0.762
no_gap,RflJVVkbxzk1i5c,sing,m,sim_sing_m,1,1.359
no_gap,RflJVVkbxzk1i5c,sing,mm,sim_sing_mm,1,0.896
no_gap,RflJVVkbxzk1i5c,sing,mm,sim_sing_mm,1,0.707
no_gap,RflJVVkbxzk1i5c,sing,m,sim_sing_m,1,0.796
no_gap,RflJVVkbxzk1i5c,sing,m,sim_sing_m,1,0.641
no_gap,RflJVVkbxzk1i5c,sing,mm,sim_sing_mm,1,0.844
no_gap,RflJVVkbxzk1i5c,sing,mm,sim_sing_mm,1,0.685
no_gap,RflJVVkbxzk1i5c,sing,m,sim_sing_m,1,0.647
no_gap,RflJVVkbxzk1i5c,sing,m,sim_sing_m,1,0.495
no_gap,RflJVVkbxzk1i5c,sing,mm,sim_sing_mm,1,0.51
no_gap,RflJVVkbxzk1i5c,sing,mm,sim_sing_mm,1,0.53
no_gap,RflJVVkbxzk1i5c,sing,m,sim_sing_m,1,0.799
no_gap,RflJVVkbxzk1i5c,sing,m,sim_sing_m,1,0.431
no_gap,RflJVVkbxzk1i5c,sing,mm,sim_sing_mm,1,1.152
no_gap,RflJVVkbxzk1i5c,sing,mm,sim_sing_mm,1,0.823
no_gap,Rg6KjG4gA3vEJF7,conj,m,sim_conj_m,1,0.404
no_gap,Rg6KjG4gA3vEJF7,conj,m,sim_conj_m,1,1.004
no_gap,Rg6KjG4gA3vEJF7,conj,mm,sim_conj_mm,1,1.319
no_gap,Rg6KjG4gA3vEJF7,conj,mm,sim_conj_mm,1,1.624
no_gap,Rg6KjG4gA3vEJF7,conj,m,sim_conj_m,1,1.6
no_gap,Rg6KjG4gA3vEJF7,conj,m,sim_conj_m,1,0.674
no_gap,Rg6KjG4gA3vEJF7,conj,mm,sim_conj_mm,1,0.961
no_gap,Rg6KjG4gA3vEJF7,conj,mm,sim_conj_mm,1,2.533
no_gap,Rg6KjG4gA3vEJF7,conj,m,sim_conj_m,1,1.056
no_gap,Rg6KjG4gA3vEJF7,conj,m,sim_conj_m,1,1.097
no_gap,Rg6KjG4gA3vEJF7,conj,mm,sim_conj_mm,1,1.213
no_gap,Rg6KjG4gA3vEJF7,conj,mm,sim_conj_mm,1,0.543
no_gap,Rg6KjG4gA3vEJF7,conj,m,sim_conj_m,1,0.849
no_gap,Rg6KjG4gA3vEJF7,conj,m,sim_conj_m,1,0.752
no_gap,Rg6KjG4gA3vEJF7,conj,mm,sim_conj_mm,1,0.611
no_gap,Rg6KjG4gA3vEJF7,conj,mm,sim_conj_mm,0,0.946
no_gap,Rg6KjG4gA3vEJF7,sing,m,sim_sing_m,1,0.703
no_gap,Rg6KjG4gA3vEJF7,sing,m,sim_sing_m,1,0.772
no_gap,Rg6KjG4gA3vEJF7,sing,mm,sim_sing_mm,1,0.463
no_gap,Rg6KjG4gA3vEJF7,sing,mm,sim_sing_mm,1,0.932
no_gap,Rg6KjG4gA3vEJF7,sing,m,sim_sing_m,1,1.255
no_gap,Rg6KjG4gA3vEJF7,sing,m,sim_sing_m,1,0.747
no_gap,Rg6KjG4gA3vEJF7,sing,mm,sim_sing_mm,1,0.493
no_gap,Rg6KjG4gA3vEJF7,sing,mm,sim_sing_mm,1,1.028
no_gap,Rg6KjG4gA3vEJF7,sing,m,sim_sing_m,1,0.94
no_gap,Rg6KjG4gA3vEJF7,sing,m,sim_sing_m,1,1.255
no_gap,Rg6KjG4gA3vEJF7,sing,mm,sim_sing_mm,1,0.844
no_gap,Rg6KjG4gA3vEJF7,sing,mm,sim_sing_mm,1,1.868
no_gap,Rg6KjG4gA3vEJF7,sing,m,sim_sing_m,1,0.474
no_gap,Rg6KjG4gA3vEJF7,sing,m,sim_sing_m,1,0.973
no_gap,Rg6KjG4gA3vEJF7,sing,mm,sim_sing_mm,1,1.533
no_gap,Rg6KjG4gA3vEJF7,sing,mm,sim_sing_mm,1,0.452
no_gap,RgHKNsWNE1ugMUa,conj,m,sim_conj_m,1,0.778
no_gap,RgHKNsWNE1ugMUa,conj,m,sim_conj_m,1,1.324
no_gap,RgHKNsWNE1ugMUa,conj,mm,sim_conj_mm,1,1.075
no_gap,RgHKNsWNE1ugMUa,conj,mm,sim_conj_mm,1,1.001
no_gap,RgHKNsWNE1ugMUa,conj,m,sim_conj_m,1,1.2
no_gap,RgHKNsWNE1ugMUa,conj,m,sim_conj_m,1,0.799
no_gap,RgHKNsWNE1ugMUa,conj,mm,sim_conj_mm,1,0.688
no_gap,RgHKNsWNE1ugMUa,conj,mm,sim_conj_mm,1,1.104
no_gap,RgHKNsWNE1ugMUa,conj,m,sim_conj_m,1,1.601
no_gap,RgHKNsWNE1ugMUa,conj,m,sim_conj_m,1,0.65
no_gap,RgHKNsWNE1ugMUa,conj,mm,sim_conj_mm,1,1.042
no_gap,RgHKNsWNE1ugMUa,conj,mm,sim_conj_mm,1,1.086
no_gap,RgHKNsWNE1ugMUa,conj,m,sim_conj_m,1,1.104
no_gap,RgHKNsWNE1ugMUa,conj,m,sim_conj_m,1,1.419
no_gap,RgHKNsWNE1ugMUa,conj,mm,sim_conj_mm,1,2.269
no_gap,RgHKNsWNE1ugMUa,conj,mm,sim_conj_mm,1,0.972
no_gap,RgHKNsWNE1ugMUa,sing,m,sim_sing_m,1,1.204
no_gap,RgHKNsWNE1ugMUa,sing,m,sim_sing_m,1,1.388
no_gap,RgHKNsWNE1ugMUa,sing,mm,sim_sing_mm,1,1.489
no_gap,RgHKNsWNE1ugMUa,sing,mm,sim_sing_mm,1,1.34
no_gap,RgHKNsWNE1ugMUa,sing,m,sim_sing_m,1,1.518
no_gap,RgHKNsWNE1ugMUa,sing,m,sim_sing_m,1,1.622
no_gap,RgHKNsWNE1ugMUa,sing,mm,sim_sing_mm,1,1.217
no_gap,RgHKNsWNE1ugMUa,sing,mm,sim_sing_mm,0,1.707
no_gap,RgHKNsWNE1ugMUa,sing,m,sim_sing_m,1,1.876
no_gap,RgHKNsWNE1ugMUa,sing,m,sim_sing_m,1,1.282
no_gap,RgHKNsWNE1ugMUa,sing,mm,sim_sing_mm,1,1.256
no_gap,RgHKNsWNE1ugMUa,sing,mm,sim_sing_mm,1,1.619
no_gap,RgHKNsWNE1ugMUa,sing,m,sim_sing_m,1,1.218
no_gap,RgHKNsWNE1ugMUa,sing,m,sim_sing_m,1,1.305
no_gap,RgHKNsWNE1ugMUa,sing,mm,sim_sing_mm,1,1.062
no_gap,RgHKNsWNE1ugMUa,sing,mm,sim_sing_mm,0,1.122
no_gap,RHkLtKPGeWEXFwg,conj,m,sim_conj_m,1,0.948
no_gap,RHkLtKPGeWEXFwg,conj,m,sim_conj_m,1,0.847
no_gap,RHkLtKPGeWEXFwg,conj,mm,sim_conj_mm,1,0.627
no_gap,RHkLtKPGeWEXFwg,conj,mm,sim_conj_mm,1,0.615
no_gap,RHkLtKPGeWEXFwg,conj,m,sim_conj_m,1,0.766
no_gap,RHkLtKPGeWEXFwg,conj,m,sim_conj_m,1,0.974
no_gap,RHkLtKPGeWEXFwg,conj,mm,sim_conj_mm,1,0.869
no_gap,RHkLtKPGeWEXFwg,conj,mm,sim_conj_mm,1,0.607
no_gap,RHkLtKPGeWEXFwg,conj,m,sim_conj_m,1,0.724
no_gap,RHkLtKPGeWEXFwg,conj,m,sim_conj_m,1,1.113
no_gap,RHkLtKPGeWEXFwg,conj,mm,sim_conj_mm,1,0.83
no_gap,RHkLtKPGeWEXFwg,conj,mm,sim_conj_mm,1,0.792
no_gap,RHkLtKPGeWEXFwg,conj,m,sim_conj_m,1,1.099
no_gap,RHkLtKPGeWEXFwg,conj,m,sim_conj_m,1,0.774
no_gap,RHkLtKPGeWEXFwg,conj,mm,sim_conj_mm,1,0.817
no_gap,RHkLtKPGeWEXFwg,conj,mm,sim_conj_mm,1,0.852
no_gap,RHkLtKPGeWEXFwg,sing,m,sim_sing_m,1,1.318
no_gap,RHkLtKPGeWEXFwg,sing,m,sim_sing_m,1,0.695
no_gap,RHkLtKPGeWEXFwg,sing,mm,sim_sing_mm,1,1.054
no_gap,RHkLtKPGeWEXFwg,sing,mm,sim_sing_mm,1,1.41
no_gap,RHkLtKPGeWEXFwg,sing,m,sim_sing_m,1,0.636
no_gap,RHkLtKPGeWEXFwg,sing,m,sim_sing_m,1,0.82
no_gap,RHkLtKPGeWEXFwg,sing,mm,sim_sing_mm,1,1.137
no_gap,RHkLtKPGeWEXFwg,sing,mm,sim_sing_mm,1,2.7
no_gap,RHkLtKPGeWEXFwg,sing,m,sim_sing_m,1,0.953
no_gap,RHkLtKPGeWEXFwg,sing,m,sim_sing_m,1,1.009
no_gap,RHkLtKPGeWEXFwg,sing,mm,sim_sing_mm,1,0.869
no_gap,RHkLtKPGeWEXFwg,sing,mm,sim_sing_mm,1,0.782
no_gap,RHkLtKPGeWEXFwg,sing,m,sim_sing_m,1,1.016
no_gap,RHkLtKPGeWEXFwg,sing,m,sim_sing_m,1,1.049
no_gap,RHkLtKPGeWEXFwg,sing,mm,sim_sing_mm,1,1.128
no_gap,RHkLtKPGeWEXFwg,sing,mm,sim_sing_mm,1,0.891
no_gap,RHpZbLVjg7CUvTk,conj,m,sim_conj_m,1,1.326
no_gap,RHpZbLVjg7CUvTk,conj,m,sim_conj_m,1,0.972
no_gap,RHpZbLVjg7CUvTk,conj,mm,sim_conj_mm,1,1.014
no_gap,RHpZbLVjg7CUvTk,conj,mm,sim_conj_mm,1,0.837
no_gap,RHpZbLVjg7CUvTk,conj,m,sim_conj_m,1,0.972
no_gap,RHpZbLVjg7CUvTk,conj,m,sim_conj_m,0,0.623
no_gap,RHpZbLVjg7CUvTk,conj,mm,sim_conj_mm,1,0.873
no_gap,RHpZbLVjg7CUvTk,conj,mm,sim_conj_mm,1,1.107
no_gap,RHpZbLVjg7CUvTk,conj,m,sim_conj_m,1,1.031
no_gap,RHpZbLVjg7CUvTk,conj,m,sim_conj_m,1,1.07
no_gap,RHpZbLVjg7CUvTk,conj,mm,sim_conj_mm,1,0.59
no_gap,RHpZbLVjg7CUvTk,conj,mm,sim_conj_mm,1,1.341
no_gap,RHpZbLVjg7CUvTk,conj,m,sim_conj_m,1,0.566
no_gap,RHpZbLVjg7CUvTk,conj,m,sim_conj_m,1,0.599
no_gap,RHpZbLVjg7CUvTk,conj,mm,sim_conj_mm,1,1.112
no_gap,RHpZbLVjg7CUvTk,conj,mm,sim_conj_mm,1,0.66
no_gap,RHpZbLVjg7CUvTk,sing,m,sim_sing_m,1,1.211
no_gap,RHpZbLVjg7CUvTk,sing,m,sim_sing_m,1,1.22
no_gap,RHpZbLVjg7CUvTk,sing,mm,sim_sing_mm,1,0.944
no_gap,RHpZbLVjg7CUvTk,sing,mm,sim_sing_mm,1,1.09
no_gap,RHpZbLVjg7CUvTk,sing,m,sim_sing_m,1,0.948
no_gap,RHpZbLVjg7CUvTk,sing,m,sim_sing_m,0,0.658
no_gap,RHpZbLVjg7CUvTk,sing,mm,sim_sing_mm,1,0.735
no_gap,RHpZbLVjg7CUvTk,sing,mm,sim_sing_mm,1,1.176
no_gap,RHpZbLVjg7CUvTk,sing,m,sim_sing_m,1,5.431
no_gap,RHpZbLVjg7CUvTk,sing,m,sim_sing_m,1,1.262
no_gap,RHpZbLVjg7CUvTk,sing,mm,sim_sing_mm,1,0.699
no_gap,RHpZbLVjg7CUvTk,sing,mm,sim_sing_mm,1,9.919
no_gap,RHpZbLVjg7CUvTk,sing,m,sim_sing_m,1,0.796
no_gap,RHpZbLVjg7CUvTk,sing,m,sim_sing_m,0,0.787
no_gap,RHpZbLVjg7CUvTk,sing,mm,sim_sing_mm,1,1.155
no_gap,RHpZbLVjg7CUvTk,sing,mm,sim_sing_mm,0,0.742
no_gap,Rhzkst2wvP8JIH4,conj,m,sim_conj_m,1,0.926
no_gap,Rhzkst2wvP8JIH4,conj,m,sim_conj_m,1,0.793
no_gap,Rhzkst2wvP8JIH4,conj,mm,sim_conj_mm,1,0.579
no_gap,Rhzkst2wvP8JIH4,conj,mm,sim_conj_mm,1,1.017
no_gap,Rhzkst2wvP8JIH4,conj,m,sim_conj_m,1,0.736
no_gap,Rhzkst2wvP8JIH4,conj,m,sim_conj_m,1,0.435
no_gap,Rhzkst2wvP8JIH4,conj,mm,sim_conj_mm,1,0.508
no_gap,Rhzkst2wvP8JIH4,conj,mm,sim_conj_mm,1,0.917
no_gap,Rhzkst2wvP8JIH4,conj,m,sim_conj_m,1,1.051
no_gap,Rhzkst2wvP8JIH4,conj,m,sim_conj_m,1,0.764
no_gap,Rhzkst2wvP8JIH4,conj,mm,sim_conj_mm,1,0.755
no_gap,Rhzkst2wvP8JIH4,conj,mm,sim_conj_mm,1,0.898
no_gap,Rhzkst2wvP8JIH4,conj,m,sim_conj_m,1,0.555
no_gap,Rhzkst2wvP8JIH4,conj,m,sim_conj_m,1,0.75
no_gap,Rhzkst2wvP8JIH4,conj,mm,sim_conj_mm,1,0.814
no_gap,Rhzkst2wvP8JIH4,conj,mm,sim_conj_mm,1,0.503
no_gap,Rhzkst2wvP8JIH4,sing,m,sim_sing_m,1,0.87
no_gap,Rhzkst2wvP8JIH4,sing,m,sim_sing_m,1,0.617
no_gap,Rhzkst2wvP8JIH4,sing,mm,sim_sing_mm,1,0.523
no_gap,Rhzkst2wvP8JIH4,sing,mm,sim_sing_mm,1,0.635
no_gap,Rhzkst2wvP8JIH4,sing,m,sim_sing_m,0,0.745
no_gap,Rhzkst2wvP8JIH4,sing,m,sim_sing_m,1,0.569
no_gap,Rhzkst2wvP8JIH4,sing,mm,sim_sing_mm,1,0.821
no_gap,Rhzkst2wvP8JIH4,sing,mm,sim_sing_mm,1,0.856
no_gap,Rhzkst2wvP8JIH4,sing,m,sim_sing_m,0,0.45
no_gap,Rhzkst2wvP8JIH4,sing,m,sim_sing_m,1,0.58
no_gap,Rhzkst2wvP8JIH4,sing,mm,sim_sing_mm,1,0.652
no_gap,Rhzkst2wvP8JIH4,sing,mm,sim_sing_mm,1,0.591
no_gap,Rhzkst2wvP8JIH4,sing,m,sim_sing_m,1,0.425
no_gap,Rhzkst2wvP8JIH4,sing,m,sim_sing_m,1,0.618
no_gap,Rhzkst2wvP8JIH4,sing,mm,sim_sing_mm,1,0.533
no_gap,Rhzkst2wvP8JIH4,sing,mm,sim_sing_mm,1,0.565
no_gap,RIfTVw1P9JXGPqL,conj,m,sim_conj_m,1,0.465
no_gap,RIfTVw1P9JXGPqL,conj,m,sim_conj_m,1,0.495
no_gap,RIfTVw1P9JXGPqL,conj,mm,sim_conj_mm,1,0.521
no_gap,RIfTVw1P9JXGPqL,conj,mm,sim_conj_mm,1,0.978
no_gap,RIfTVw1P9JXGPqL,conj,m,sim_conj_m,1,0.542
no_gap,RIfTVw1P9JXGPqL,conj,m,sim_conj_m,1,0.599
no_gap,RIfTVw1P9JXGPqL,conj,mm,sim_conj_mm,1,0.698
no_gap,RIfTVw1P9JXGPqL,conj,mm,sim_conj_mm,1,0.64
no_gap,RIfTVw1P9JXGPqL,conj,m,sim_conj_m,1,0.681
no_gap,RIfTVw1P9JXGPqL,conj,m,sim_conj_m,1,0.495
no_gap,RIfTVw1P9JXGPqL,conj,mm,sim_conj_mm,1,0.866
no_gap,RIfTVw1P9JXGPqL,conj,mm,sim_conj_mm,1,1.511
no_gap,RIfTVw1P9JXGPqL,conj,m,sim_conj_m,1,0.85
no_gap,RIfTVw1P9JXGPqL,conj,m,sim_conj_m,1,0.624
no_gap,RIfTVw1P9JXGPqL,conj,mm,sim_conj_mm,1,2.304
no_gap,RIfTVw1P9JXGPqL,conj,mm,sim_conj_mm,1,1.787
no_gap,RIfTVw1P9JXGPqL,sing,m,sim_sing_m,1,0.739
no_gap,RIfTVw1P9JXGPqL,sing,m,sim_sing_m,1,1.47
no_gap,RIfTVw1P9JXGPqL,sing,mm,sim_sing_mm,1,0.7
no_gap,RIfTVw1P9JXGPqL,sing,mm,sim_sing_mm,1,0.642
no_gap,RIfTVw1P9JXGPqL,sing,m,sim_sing_m,1,0.661
no_gap,RIfTVw1P9JXGPqL,sing,m,sim_sing_m,1,0.759
no_gap,RIfTVw1P9JXGPqL,sing,mm,sim_sing_mm,1,0.761
no_gap,RIfTVw1P9JXGPqL,sing,mm,sim_sing_mm,1,0.807
no_gap,RIfTVw1P9JXGPqL,sing,m,sim_sing_m,1,0.799
no_gap,RIfTVw1P9JXGPqL,sing,m,sim_sing_m,1,1.007
no_gap,RIfTVw1P9JXGPqL,sing,mm,sim_sing_mm,1,0.756
no_gap,RIfTVw1P9JXGPqL,sing,mm,sim_sing_mm,1,0.582
no_gap,RIfTVw1P9JXGPqL,sing,m,sim_sing_m,1,0.383
no_gap,RIfTVw1P9JXGPqL,sing,m,sim_sing_m,1,0.98
no_gap,RIfTVw1P9JXGPqL,sing,mm,sim_sing_mm,1,1.204
no_gap,RIfTVw1P9JXGPqL,sing,mm,sim_sing_mm,1,0.779
no_gap,RimoeufCHjjazMW,conj,m,sim_conj_m,1,0.811
no_gap,RimoeufCHjjazMW,conj,m,sim_conj_m,1,0.631
no_gap,RimoeufCHjjazMW,conj,mm,sim_conj_mm,1,0.601
no_gap,RimoeufCHjjazMW,conj,mm,sim_conj_mm,1,1.748
no_gap,RimoeufCHjjazMW,conj,m,sim_conj_m,1,0.593
no_gap,RimoeufCHjjazMW,conj,m,sim_conj_m,1,0.472
no_gap,RimoeufCHjjazMW,conj,mm,sim_conj_mm,1,0.679
no_gap,RimoeufCHjjazMW,conj,mm,sim_conj_mm,1,0.567
no_gap,RimoeufCHjjazMW,conj,m,sim_conj_m,1,0.915
no_gap,RimoeufCHjjazMW,conj,m,sim_conj_m,1,0.376
no_gap,RimoeufCHjjazMW,conj,mm,sim_conj_mm,1,0.478
no_gap,RimoeufCHjjazMW,conj,mm,sim_conj_mm,1,0.778
no_gap,RimoeufCHjjazMW,conj,m,sim_conj_m,1,0.811
no_gap,RimoeufCHjjazMW,conj,m,sim_conj_m,1,0.841
no_gap,RimoeufCHjjazMW,conj,mm,sim_conj_mm,1,0.605
no_gap,RimoeufCHjjazMW,conj,mm,sim_conj_mm,1,0.564
no_gap,RimoeufCHjjazMW,sing,m,sim_sing_m,1,0.45
no_gap,RimoeufCHjjazMW,sing,m,sim_sing_m,1,0.668
no_gap,RimoeufCHjjazMW,sing,mm,sim_sing_mm,1,2.316
no_gap,RimoeufCHjjazMW,sing,mm,sim_sing_mm,1,0.641
no_gap,RimoeufCHjjazMW,sing,m,sim_sing_m,1,1.118
no_gap,RimoeufCHjjazMW,sing,m,sim_sing_m,1,1.607
no_gap,RimoeufCHjjazMW,sing,mm,sim_sing_mm,1,0.467
no_gap,RimoeufCHjjazMW,sing,mm,sim_sing_mm,1,0.597
no_gap,RimoeufCHjjazMW,sing,m,sim_sing_m,1,0.942
no_gap,RimoeufCHjjazMW,sing,m,sim_sing_m,1,0.501
no_gap,RimoeufCHjjazMW,sing,mm,sim_sing_mm,1,0.438
no_gap,RimoeufCHjjazMW,sing,mm,sim_sing_mm,1,0.627
no_gap,RimoeufCHjjazMW,sing,m,sim_sing_m,1,0.375
no_gap,RimoeufCHjjazMW,sing,m,sim_sing_m,1,0.502
no_gap,RimoeufCHjjazMW,sing,mm,sim_sing_mm,1,0.556
no_gap,RimoeufCHjjazMW,sing,mm,sim_sing_mm,1,0.63
no_gap,RIR8kofj9wFWdIF,conj,m,sim_conj_m,1,0.801
no_gap,RIR8kofj9wFWdIF,conj,m,sim_conj_m,1,1.368
no_gap,RIR8kofj9wFWdIF,conj,mm,sim_conj_mm,1,1.046
no_gap,RIR8kofj9wFWdIF,conj,mm,sim_conj_mm,1,1.247
no_gap,RIR8kofj9wFWdIF,conj,m,sim_conj_m,1,1.017
no_gap,RIR8kofj9wFWdIF,conj,m,sim_conj_m,1,1.347
no_gap,RIR8kofj9wFWdIF,conj,mm,sim_conj_mm,1,1.86
no_gap,RIR8kofj9wFWdIF,conj,mm,sim_conj_mm,1,1.269
no_gap,RIR8kofj9wFWdIF,conj,m,sim_conj_m,1,1.32
no_gap,RIR8kofj9wFWdIF,conj,m,sim_conj_m,1,1.28
no_gap,RIR8kofj9wFWdIF,conj,mm,sim_conj_mm,1,1.253
no_gap,RIR8kofj9wFWdIF,conj,mm,sim_conj_mm,1,1.131
no_gap,RIR8kofj9wFWdIF,conj,m,sim_conj_m,1,1.46
no_gap,RIR8kofj9wFWdIF,conj,m,sim_conj_m,1,1.327
no_gap,RIR8kofj9wFWdIF,conj,mm,sim_conj_mm,1,1.972
no_gap,RIR8kofj9wFWdIF,conj,mm,sim_conj_mm,1,1.236
no_gap,RIR8kofj9wFWdIF,sing,m,sim_sing_m,1,0.887
no_gap,RIR8kofj9wFWdIF,sing,m,sim_sing_m,1,1.655
no_gap,RIR8kofj9wFWdIF,sing,mm,sim_sing_mm,1,1.802
no_gap,RIR8kofj9wFWdIF,sing,mm,sim_sing_mm,1,1.248
no_gap,RIR8kofj9wFWdIF,sing,m,sim_sing_m,1,1.923
no_gap,RIR8kofj9wFWdIF,sing,m,sim_sing_m,1,1.428
no_gap,RIR8kofj9wFWdIF,sing,mm,sim_sing_mm,1,0.852
no_gap,RIR8kofj9wFWdIF,sing,mm,sim_sing_mm,1,3.226
no_gap,RIR8kofj9wFWdIF,sing,m,sim_sing_m,1,2.018
no_gap,RIR8kofj9wFWdIF,sing,m,sim_sing_m,1,1.149
no_gap,RIR8kofj9wFWdIF,sing,mm,sim_sing_mm,1,6.905
no_gap,RIR8kofj9wFWdIF,sing,mm,sim_sing_mm,1,1.485
no_gap,RIR8kofj9wFWdIF,sing,m,sim_sing_m,1,1.416
no_gap,RIR8kofj9wFWdIF,sing,m,sim_sing_m,1,0.832
no_gap,RIR8kofj9wFWdIF,sing,mm,sim_sing_mm,0,1.362
no_gap,RIR8kofj9wFWdIF,sing,mm,sim_sing_mm,1,1.634
no_gap,RISOn43feC1HgrC,conj,m,sim_conj_m,1,0.901
no_gap,RISOn43feC1HgrC,conj,m,sim_conj_m,1,2.613
no_gap,RISOn43feC1HgrC,conj,mm,sim_conj_mm,0,0.516
no_gap,RISOn43feC1HgrC,conj,mm,sim_conj_mm,0,0.666
no_gap,RISOn43feC1HgrC,conj,m,sim_conj_m,1,0.883
no_gap,RISOn43feC1HgrC,conj,m,sim_conj_m,1,0.938
no_gap,RISOn43feC1HgrC,conj,mm,sim_conj_mm,1,0.656
no_gap,RISOn43feC1HgrC,conj,mm,sim_conj_mm,1,0.746
no_gap,RISOn43feC1HgrC,conj,m,sim_conj_m,1,8.614
no_gap,RISOn43feC1HgrC,conj,m,sim_conj_m,1,1.315
no_gap,RISOn43feC1HgrC,conj,mm,sim_conj_mm,1,1.187
no_gap,RISOn43feC1HgrC,conj,mm,sim_conj_mm,1,1.026
no_gap,RISOn43feC1HgrC,conj,m,sim_conj_m,1,0.555
no_gap,RISOn43feC1HgrC,conj,m,sim_conj_m,1,2.179
no_gap,RISOn43feC1HgrC,conj,mm,sim_conj_mm,1,1.519
no_gap,RISOn43feC1HgrC,conj,mm,sim_conj_mm,1,0.614
no_gap,RISOn43feC1HgrC,sing,m,sim_sing_m,1,2.06
no_gap,RISOn43feC1HgrC,sing,m,sim_sing_m,1,1.323
no_gap,RISOn43feC1HgrC,sing,mm,sim_sing_mm,1,1.131
no_gap,RISOn43feC1HgrC,sing,mm,sim_sing_mm,1,0.75
no_gap,RISOn43feC1HgrC,sing,m,sim_sing_m,1,0.515
no_gap,RISOn43feC1HgrC,sing,m,sim_sing_m,1,0.631
no_gap,RISOn43feC1HgrC,sing,mm,sim_sing_mm,1,1.223
no_gap,RISOn43feC1HgrC,sing,mm,sim_sing_mm,1,1.161
no_gap,RISOn43feC1HgrC,sing,m,sim_sing_m,1,0.576
no_gap,RISOn43feC1HgrC,sing,m,sim_sing_m,1,1.314
no_gap,RISOn43feC1HgrC,sing,mm,sim_sing_mm,1,0.623
no_gap,RISOn43feC1HgrC,sing,mm,sim_sing_mm,1,1.014
no_gap,RISOn43feC1HgrC,sing,m,sim_sing_m,1,1.856
no_gap,RISOn43feC1HgrC,sing,m,sim_sing_m,1,1.068
no_gap,RISOn43feC1HgrC,sing,mm,sim_sing_mm,1,0.66
no_gap,RISOn43feC1HgrC,sing,mm,sim_sing_mm,0,0.503
no_gap,RIXVr7a4rbLclDy,conj,m,sim_conj_m,1,1.128
no_gap,RIXVr7a4rbLclDy,conj,m,sim_conj_m,1,1.856
no_gap,RIXVr7a4rbLclDy,conj,mm,sim_conj_mm,1,0.971
no_gap,RIXVr7a4rbLclDy,conj,mm,sim_conj_mm,1,4.623
no_gap,RIXVr7a4rbLclDy,conj,m,sim_conj_m,1,1.518
no_gap,RIXVr7a4rbLclDy,conj,m,sim_conj_m,1,5.164
no_gap,RIXVr7a4rbLclDy,conj,mm,sim_conj_mm,1,0.624
no_gap,RIXVr7a4rbLclDy,conj,mm,sim_conj_mm,1,1.274
no_gap,RIXVr7a4rbLclDy,conj,m,sim_conj_m,1,1.32
no_gap,RIXVr7a4rbLclDy,conj,m,sim_conj_m,1,1.019
no_gap,RIXVr7a4rbLclDy,conj,mm,sim_conj_mm,1,1.414
no_gap,RIXVr7a4rbLclDy,conj,mm,sim_conj_mm,1,4.466
no_gap,RIXVr7a4rbLclDy,conj,m,sim_conj_m,1,0.912
no_gap,RIXVr7a4rbLclDy,conj,m,sim_conj_m,1,2.348
no_gap,RIXVr7a4rbLclDy,conj,mm,sim_conj_mm,1,1.701
no_gap,RIXVr7a4rbLclDy,conj,mm,sim_conj_mm,1,0.632
no_gap,RIXVr7a4rbLclDy,sing,m,sim_sing_m,1,0.44
no_gap,RIXVr7a4rbLclDy,sing,m,sim_sing_m,1,1.45
no_gap,RIXVr7a4rbLclDy,sing,mm,sim_sing_mm,1,1.99
no_gap,RIXVr7a4rbLclDy,sing,mm,sim_sing_mm,1,1.247
no_gap,RIXVr7a4rbLclDy,sing,m,sim_sing_m,1,1.07
no_gap,RIXVr7a4rbLclDy,sing,m,sim_sing_m,0,1.356
no_gap,RIXVr7a4rbLclDy,sing,mm,sim_sing_mm,1,0.964
no_gap,RIXVr7a4rbLclDy,sing,mm,sim_sing_mm,0,0.507
no_gap,RIXVr7a4rbLclDy,sing,m,sim_sing_m,1,1.433
no_gap,RIXVr7a4rbLclDy,sing,m,sim_sing_m,1,1.118
no_gap,RIXVr7a4rbLclDy,sing,mm,sim_sing_mm,1,0.711
no_gap,RIXVr7a4rbLclDy,sing,mm,sim_sing_mm,1,1.728
no_gap,RIXVr7a4rbLclDy,sing,m,sim_sing_m,1,1.448
no_gap,RIXVr7a4rbLclDy,sing,m,sim_sing_m,1,1.081
no_gap,RIXVr7a4rbLclDy,sing,mm,sim_sing_mm,1,2.94
no_gap,RIXVr7a4rbLclDy,sing,mm,sim_sing_mm,1,5.741
no_gap,RjCgwQdSLoXJHUV,conj,m,sim_conj_m,1,1.922
no_gap,RjCgwQdSLoXJHUV,conj,m,sim_conj_m,1,2.749
no_gap,RjCgwQdSLoXJHUV,conj,mm,sim_conj_mm,1,1.357
no_gap,RjCgwQdSLoXJHUV,conj,mm,sim_conj_mm,1,1.661
no_gap,RjCgwQdSLoXJHUV,conj,m,sim_conj_m,1,0.468
no_gap,RjCgwQdSLoXJHUV,conj,m,sim_conj_m,1,1.041
no_gap,RjCgwQdSLoXJHUV,conj,mm,sim_conj_mm,1,0.682
no_gap,RjCgwQdSLoXJHUV,conj,mm,sim_conj_mm,1,0.947
no_gap,RjCgwQdSLoXJHUV,conj,m,sim_conj_m,1,1.595
no_gap,RjCgwQdSLoXJHUV,conj,m,sim_conj_m,1,0.483
no_gap,RjCgwQdSLoXJHUV,conj,mm,sim_conj_mm,1,2.71
no_gap,RjCgwQdSLoXJHUV,conj,mm,sim_conj_mm,1,1.112
no_gap,RjCgwQdSLoXJHUV,conj,m,sim_conj_m,1,1.455
no_gap,RjCgwQdSLoXJHUV,conj,m,sim_conj_m,1,1.356
no_gap,RjCgwQdSLoXJHUV,conj,mm,sim_conj_mm,1,1.95
no_gap,RjCgwQdSLoXJHUV,conj,mm,sim_conj_mm,1,1.213
no_gap,RjCgwQdSLoXJHUV,sing,m,sim_sing_m,1,0.431
no_gap,RjCgwQdSLoXJHUV,sing,m,sim_sing_m,1,1.032
no_gap,RjCgwQdSLoXJHUV,sing,mm,sim_sing_mm,1,0.958
no_gap,RjCgwQdSLoXJHUV,sing,mm,sim_sing_mm,1,0.873
no_gap,RjCgwQdSLoXJHUV,sing,m,sim_sing_m,1,1.431
no_gap,RjCgwQdSLoXJHUV,sing,m,sim_sing_m,1,0.73
no_gap,RjCgwQdSLoXJHUV,sing,mm,sim_sing_mm,1,1.25
no_gap,RjCgwQdSLoXJHUV,sing,mm,sim_sing_mm,1,1.502
no_gap,RjCgwQdSLoXJHUV,sing,m,sim_sing_m,1,0.734
no_gap,RjCgwQdSLoXJHUV,sing,m,sim_sing_m,1,1.68
no_gap,RjCgwQdSLoXJHUV,sing,mm,sim_sing_mm,1,1.31
no_gap,RjCgwQdSLoXJHUV,sing,mm,sim_sing_mm,1,1.188
no_gap,RjCgwQdSLoXJHUV,sing,m,sim_sing_m,1,1
no_gap,RjCgwQdSLoXJHUV,sing,m,sim_sing_m,1,1.148
no_gap,RjCgwQdSLoXJHUV,sing,mm,sim_sing_mm,1,1.025
no_gap,RjCgwQdSLoXJHUV,sing,mm,sim_sing_mm,1,1.532
no_gap,RjDKVL7IiGl9Yg2,conj,m,sim_conj_m,1,3.512
no_gap,RjDKVL7IiGl9Yg2,conj,m,sim_conj_m,1,1.098
no_gap,RjDKVL7IiGl9Yg2,conj,mm,sim_conj_mm,1,1.476
no_gap,RjDKVL7IiGl9Yg2,conj,mm,sim_conj_mm,1,2.037
no_gap,RjDKVL7IiGl9Yg2,conj,m,sim_conj_m,1,1.343
no_gap,RjDKVL7IiGl9Yg2,conj,m,sim_conj_m,1,1.155
no_gap,RjDKVL7IiGl9Yg2,conj,mm,sim_conj_mm,1,1.434
no_gap,RjDKVL7IiGl9Yg2,conj,mm,sim_conj_mm,1,1.392
no_gap,RjDKVL7IiGl9Yg2,conj,m,sim_conj_m,1,1.934
no_gap,RjDKVL7IiGl9Yg2,conj,m,sim_conj_m,1,1.131
no_gap,RjDKVL7IiGl9Yg2,conj,mm,sim_conj_mm,1,0.897
no_gap,RjDKVL7IiGl9Yg2,conj,mm,sim_conj_mm,1,1.047
no_gap,RjDKVL7IiGl9Yg2,conj,m,sim_conj_m,1,1.151
no_gap,RjDKVL7IiGl9Yg2,conj,m,sim_conj_m,1,1.168
no_gap,RjDKVL7IiGl9Yg2,conj,mm,sim_conj_mm,1,0.919
no_gap,RjDKVL7IiGl9Yg2,conj,mm,sim_conj_mm,1,2.28
no_gap,RjDKVL7IiGl9Yg2,sing,m,sim_sing_m,1,3.166
no_gap,RjDKVL7IiGl9Yg2,sing,m,sim_sing_m,1,1.55
no_gap,RjDKVL7IiGl9Yg2,sing,mm,sim_sing_mm,0,1.024
no_gap,RjDKVL7IiGl9Yg2,sing,mm,sim_sing_mm,1,1.776
no_gap,RjDKVL7IiGl9Yg2,sing,m,sim_sing_m,1,1.123
no_gap,RjDKVL7IiGl9Yg2,sing,m,sim_sing_m,1,0.591
no_gap,RjDKVL7IiGl9Yg2,sing,mm,sim_sing_mm,1,1.617
no_gap,RjDKVL7IiGl9Yg2,sing,mm,sim_sing_mm,1,2.168
no_gap,RjDKVL7IiGl9Yg2,sing,m,sim_sing_m,1,1.234
no_gap,RjDKVL7IiGl9Yg2,sing,m,sim_sing_m,0,1.067
no_gap,RjDKVL7IiGl9Yg2,sing,mm,sim_sing_mm,1,1.165
no_gap,RjDKVL7IiGl9Yg2,sing,mm,sim_sing_mm,1,1.354
no_gap,RjDKVL7IiGl9Yg2,sing,m,sim_sing_m,1,1.094
no_gap,RjDKVL7IiGl9Yg2,sing,m,sim_sing_m,1,2.159
no_gap,RjDKVL7IiGl9Yg2,sing,mm,sim_sing_mm,1,1.172
no_gap,RjDKVL7IiGl9Yg2,sing,mm,sim_sing_mm,0,2.307
no_gap,RjE8xih7Lg9IirX,conj,m,sim_conj_m,1,0.426
no_gap,RjE8xih7Lg9IirX,conj,m,sim_conj_m,1,0.56
no_gap,RjE8xih7Lg9IirX,conj,mm,sim_conj_mm,1,0.476
no_gap,RjE8xih7Lg9IirX,conj,mm,sim_conj_mm,1,0.632
no_gap,RjE8xih7Lg9IirX,conj,m,sim_conj_m,1,0.449
no_gap,RjE8xih7Lg9IirX,conj,m,sim_conj_m,1,0.402
no_gap,RjE8xih7Lg9IirX,conj,mm,sim_conj_mm,1,0.771
no_gap,RjE8xih7Lg9IirX,conj,mm,sim_conj_mm,1,0.412
no_gap,RjE8xih7Lg9IirX,conj,m,sim_conj_m,1,0.414
no_gap,RjE8xih7Lg9IirX,conj,m,sim_conj_m,1,0.366
no_gap,RjE8xih7Lg9IirX,conj,mm,sim_conj_mm,1,0.428
no_gap,RjE8xih7Lg9IirX,conj,mm,sim_conj_mm,1,0.407
no_gap,RjE8xih7Lg9IirX,conj,m,sim_conj_m,1,0.427
no_gap,RjE8xih7Lg9IirX,conj,m,sim_conj_m,1,0.38
no_gap,RjE8xih7Lg9IirX,conj,mm,sim_conj_mm,1,0.462
no_gap,RjE8xih7Lg9IirX,conj,mm,sim_conj_mm,1,0.608
no_gap,RjE8xih7Lg9IirX,sing,m,sim_sing_m,1,0.518
no_gap,RjE8xih7Lg9IirX,sing,m,sim_sing_m,1,0.413
no_gap,RjE8xih7Lg9IirX,sing,mm,sim_sing_mm,1,0.409
no_gap,RjE8xih7Lg9IirX,sing,mm,sim_sing_mm,1,0.436
no_gap,RjE8xih7Lg9IirX,sing,m,sim_sing_m,1,0.513
no_gap,RjE8xih7Lg9IirX,sing,m,sim_sing_m,1,0.413
no_gap,RjE8xih7Lg9IirX,sing,mm,sim_sing_mm,1,0.448
no_gap,RjE8xih7Lg9IirX,sing,mm,sim_sing_mm,1,0.604
no_gap,RjE8xih7Lg9IirX,sing,m,sim_sing_m,1,1.114
no_gap,RjE8xih7Lg9IirX,sing,m,sim_sing_m,0,0.623
no_gap,RjE8xih7Lg9IirX,sing,mm,sim_sing_mm,1,0.414
no_gap,RjE8xih7Lg9IirX,sing,mm,sim_sing_mm,1,0.484
no_gap,RjE8xih7Lg9IirX,sing,m,sim_sing_m,1,0.375
no_gap,RjE8xih7Lg9IirX,sing,m,sim_sing_m,1,0.433
no_gap,RjE8xih7Lg9IirX,sing,mm,sim_sing_mm,1,0.458
no_gap,RjE8xih7Lg9IirX,sing,mm,sim_sing_mm,1,0.522
no_gap,RjH3pdKIvdSHNIY,conj,m,sim_conj_m,0,0.609
no_gap,RjH3pdKIvdSHNIY,conj,m,sim_conj_m,1,0.816
no_gap,RjH3pdKIvdSHNIY,conj,mm,sim_conj_mm,1,0.659
no_gap,RjH3pdKIvdSHNIY,conj,mm,sim_conj_mm,1,0.69
no_gap,RjH3pdKIvdSHNIY,conj,m,sim_conj_m,1,0.581
no_gap,RjH3pdKIvdSHNIY,conj,m,sim_conj_m,1,0.749
no_gap,RjH3pdKIvdSHNIY,conj,mm,sim_conj_mm,1,0.769
no_gap,RjH3pdKIvdSHNIY,conj,mm,sim_conj_mm,1,0.85
no_gap,RjH3pdKIvdSHNIY,conj,m,sim_conj_m,1,0.563
no_gap,RjH3pdKIvdSHNIY,conj,m,sim_conj_m,1,0.384
no_gap,RjH3pdKIvdSHNIY,conj,mm,sim_conj_mm,1,0.549
no_gap,RjH3pdKIvdSHNIY,conj,mm,sim_conj_mm,1,0.711
no_gap,RjH3pdKIvdSHNIY,conj,m,sim_conj_m,1,0.578
no_gap,RjH3pdKIvdSHNIY,conj,m,sim_conj_m,1,0.48
no_gap,RjH3pdKIvdSHNIY,conj,mm,sim_conj_mm,1,0.97
no_gap,RjH3pdKIvdSHNIY,conj,mm,sim_conj_mm,1,0.678
no_gap,RjH3pdKIvdSHNIY,sing,m,sim_sing_m,1,0.753
no_gap,RjH3pdKIvdSHNIY,sing,m,sim_sing_m,1,0.813
no_gap,RjH3pdKIvdSHNIY,sing,mm,sim_sing_mm,0,1.126
no_gap,RjH3pdKIvdSHNIY,sing,mm,sim_sing_mm,1,0.916
no_gap,RjH3pdKIvdSHNIY,sing,m,sim_sing_m,1,0.737
no_gap,RjH3pdKIvdSHNIY,sing,m,sim_sing_m,1,0.66
no_gap,RjH3pdKIvdSHNIY,sing,mm,sim_sing_mm,1,0.655
no_gap,RjH3pdKIvdSHNIY,sing,mm,sim_sing_mm,1,0.733
no_gap,RjH3pdKIvdSHNIY,sing,m,sim_sing_m,1,0.828
no_gap,RjH3pdKIvdSHNIY,sing,m,sim_sing_m,1,0.872
no_gap,RjH3pdKIvdSHNIY,sing,mm,sim_sing_mm,1,0.701
no_gap,RjH3pdKIvdSHNIY,sing,mm,sim_sing_mm,1,0.734
no_gap,RjH3pdKIvdSHNIY,sing,m,sim_sing_m,1,1.015
no_gap,RjH3pdKIvdSHNIY,sing,m,sim_sing_m,1,0.563
no_gap,RjH3pdKIvdSHNIY,sing,mm,sim_sing_mm,1,0.597
no_gap,RjH3pdKIvdSHNIY,sing,mm,sim_sing_mm,1,0.773
no_gap,Rjrzi2l761541zF,conj,m,sim_conj_m,1,0.514
no_gap,Rjrzi2l761541zF,conj,m,sim_conj_m,1,0.718
no_gap,Rjrzi2l761541zF,conj,mm,sim_conj_mm,1,0.73
no_gap,Rjrzi2l761541zF,conj,mm,sim_conj_mm,1,0.803
no_gap,Rjrzi2l761541zF,conj,m,sim_conj_m,1,0.751
no_gap,Rjrzi2l761541zF,conj,m,sim_conj_m,1,0.447
no_gap,Rjrzi2l761541zF,conj,mm,sim_conj_mm,1,0.599
no_gap,Rjrzi2l761541zF,conj,mm,sim_conj_mm,1,0.658
no_gap,Rjrzi2l761541zF,conj,m,sim_conj_m,1,0.923
no_gap,Rjrzi2l761541zF,conj,m,sim_conj_m,1,0.59
no_gap,Rjrzi2l761541zF,conj,mm,sim_conj_mm,1,0.718
no_gap,Rjrzi2l761541zF,conj,mm,sim_conj_mm,1,0.508
no_gap,Rjrzi2l761541zF,conj,m,sim_conj_m,1,0.729
no_gap,Rjrzi2l761541zF,conj,m,sim_conj_m,1,0.711
no_gap,Rjrzi2l761541zF,conj,mm,sim_conj_mm,1,0.53
no_gap,Rjrzi2l761541zF,conj,mm,sim_conj_mm,1,0.585
no_gap,Rjrzi2l761541zF,sing,m,sim_sing_m,0,0.713
no_gap,Rjrzi2l761541zF,sing,m,sim_sing_m,1,0.559
no_gap,Rjrzi2l761541zF,sing,mm,sim_sing_mm,1,0.768
no_gap,Rjrzi2l761541zF,sing,mm,sim_sing_mm,0,0.561
no_gap,Rjrzi2l761541zF,sing,m,sim_sing_m,1,0.573
no_gap,Rjrzi2l761541zF,sing,m,sim_sing_m,1,0.499
no_gap,Rjrzi2l761541zF,sing,mm,sim_sing_mm,1,0.557
no_gap,Rjrzi2l761541zF,sing,mm,sim_sing_mm,1,0.631
no_gap,Rjrzi2l761541zF,sing,m,sim_sing_m,1,1.038
no_gap,Rjrzi2l761541zF,sing,m,sim_sing_m,1,0.562
no_gap,Rjrzi2l761541zF,sing,mm,sim_sing_mm,1,1.106
no_gap,Rjrzi2l761541zF,sing,mm,sim_sing_mm,1,1.101
no_gap,Rjrzi2l761541zF,sing,m,sim_sing_m,1,0.647
no_gap,Rjrzi2l761541zF,sing,m,sim_sing_m,1,0.448
no_gap,Rjrzi2l761541zF,sing,mm,sim_sing_mm,1,1.149
no_gap,Rjrzi2l761541zF,sing,mm,sim_sing_mm,1,0.761
no_gap,RK3eLYRF0WM0F1x,conj,m,sim_conj_m,1,1.173
no_gap,RK3eLYRF0WM0F1x,conj,m,sim_conj_m,1,0.537
no_gap,RK3eLYRF0WM0F1x,conj,mm,sim_conj_mm,1,1.221
no_gap,RK3eLYRF0WM0F1x,conj,mm,sim_conj_mm,1,1.285
no_gap,RK3eLYRF0WM0F1x,conj,m,sim_conj_m,1,1.301
no_gap,RK3eLYRF0WM0F1x,conj,m,sim_conj_m,1,0.5
no_gap,RK3eLYRF0WM0F1x,conj,mm,sim_conj_mm,1,1.516
no_gap,RK3eLYRF0WM0F1x,conj,mm,sim_conj_mm,1,1.168
no_gap,RK3eLYRF0WM0F1x,conj,m,sim_conj_m,1,0.641
no_gap,RK3eLYRF0WM0F1x,conj,m,sim_conj_m,1,1.327
no_gap,RK3eLYRF0WM0F1x,conj,mm,sim_conj_mm,1,1.264
no_gap,RK3eLYRF0WM0F1x,conj,mm,sim_conj_mm,1,1.133
no_gap,RK3eLYRF0WM0F1x,conj,m,sim_conj_m,1,2.157
no_gap,RK3eLYRF0WM0F1x,conj,m,sim_conj_m,1,1.009
no_gap,RK3eLYRF0WM0F1x,conj,mm,sim_conj_mm,1,1.213
no_gap,RK3eLYRF0WM0F1x,conj,mm,sim_conj_mm,1,2.026
no_gap,RK3eLYRF0WM0F1x,sing,m,sim_sing_m,1,1.507
no_gap,RK3eLYRF0WM0F1x,sing,m,sim_sing_m,1,2.477
no_gap,RK3eLYRF0WM0F1x,sing,mm,sim_sing_mm,1,1.776
no_gap,RK3eLYRF0WM0F1x,sing,mm,sim_sing_mm,1,1.294
no_gap,RK3eLYRF0WM0F1x,sing,m,sim_sing_m,1,1.302
no_gap,RK3eLYRF0WM0F1x,sing,m,sim_sing_m,1,1.548
no_gap,RK3eLYRF0WM0F1x,sing,mm,sim_sing_mm,1,1.217
no_gap,RK3eLYRF0WM0F1x,sing,mm,sim_sing_mm,1,2.136
no_gap,RK3eLYRF0WM0F1x,sing,m,sim_sing_m,1,2.639
no_gap,RK3eLYRF0WM0F1x,sing,m,sim_sing_m,1,1.054
no_gap,RK3eLYRF0WM0F1x,sing,mm,sim_sing_mm,1,1.187
no_gap,RK3eLYRF0WM0F1x,sing,mm,sim_sing_mm,1,1.209
no_gap,RK3eLYRF0WM0F1x,sing,m,sim_sing_m,1,2.119
no_gap,RK3eLYRF0WM0F1x,sing,m,sim_sing_m,1,1.404
no_gap,RK3eLYRF0WM0F1x,sing,mm,sim_sing_mm,1,1.553
no_gap,RK3eLYRF0WM0F1x,sing,mm,sim_sing_mm,1,1.659
no_gap,RK6KGucq5uhaFzv,conj,m,sim_conj_m,1,1.252
no_gap,RK6KGucq5uhaFzv,conj,m,sim_conj_m,1,0.864
no_gap,RK6KGucq5uhaFzv,conj,mm,sim_conj_mm,1,1.609
no_gap,RK6KGucq5uhaFzv,conj,mm,sim_conj_mm,1,2.386
no_gap,RK6KGucq5uhaFzv,conj,m,sim_conj_m,1,1.16
no_gap,RK6KGucq5uhaFzv,conj,m,sim_conj_m,1,1.515
no_gap,RK6KGucq5uhaFzv,conj,mm,sim_conj_mm,1,1.914
no_gap,RK6KGucq5uhaFzv,conj,mm,sim_conj_mm,1,2.516
no_gap,RK6KGucq5uhaFzv,conj,m,sim_conj_m,1,1.779
no_gap,RK6KGucq5uhaFzv,conj,m,sim_conj_m,1,1.095
no_gap,RK6KGucq5uhaFzv,conj,mm,sim_conj_mm,1,1.179
no_gap,RK6KGucq5uhaFzv,conj,mm,sim_conj_mm,1,1.265
no_gap,RK6KGucq5uhaFzv,conj,m,sim_conj_m,1,1.709
no_gap,RK6KGucq5uhaFzv,conj,m,sim_conj_m,1,1.852
no_gap,RK6KGucq5uhaFzv,conj,mm,sim_conj_mm,1,2.89
no_gap,RK6KGucq5uhaFzv,conj,mm,sim_conj_mm,1,1.618
no_gap,RK6KGucq5uhaFzv,sing,m,sim_sing_m,1,1.569
no_gap,RK6KGucq5uhaFzv,sing,m,sim_sing_m,1,1.07
no_gap,RK6KGucq5uhaFzv,sing,mm,sim_sing_mm,1,0.649
no_gap,RK6KGucq5uhaFzv,sing,mm,sim_sing_mm,1,1.975
no_gap,RK6KGucq5uhaFzv,sing,m,sim_sing_m,1,0.814
no_gap,RK6KGucq5uhaFzv,sing,m,sim_sing_m,1,1.689
no_gap,RK6KGucq5uhaFzv,sing,mm,sim_sing_mm,1,4.703
no_gap,RK6KGucq5uhaFzv,sing,mm,sim_sing_mm,1,1.896
no_gap,RK6KGucq5uhaFzv,sing,m,sim_sing_m,1,1.381
no_gap,RK6KGucq5uhaFzv,sing,m,sim_sing_m,1,1.345
no_gap,RK6KGucq5uhaFzv,sing,mm,sim_sing_mm,1,1.166
no_gap,RK6KGucq5uhaFzv,sing,mm,sim_sing_mm,1,1.814
no_gap,RK6KGucq5uhaFzv,sing,m,sim_sing_m,1,1.498
no_gap,RK6KGucq5uhaFzv,sing,m,sim_sing_m,1,3.435
no_gap,RK6KGucq5uhaFzv,sing,mm,sim_sing_mm,0,0.969
no_gap,RK6KGucq5uhaFzv,sing,mm,sim_sing_mm,1,1.329
no_gap,RK71a7Ou0dd9RDl,conj,m,sim_conj_m,1,0.816
no_gap,RK71a7Ou0dd9RDl,conj,m,sim_conj_m,1,1.395
no_gap,RK71a7Ou0dd9RDl,conj,mm,sim_conj_mm,1,0.791
no_gap,RK71a7Ou0dd9RDl,conj,mm,sim_conj_mm,1,1.286
no_gap,RK71a7Ou0dd9RDl,conj,m,sim_conj_m,1,0.827
no_gap,RK71a7Ou0dd9RDl,conj,m,sim_conj_m,0,0.942
no_gap,RK71a7Ou0dd9RDl,conj,mm,sim_conj_mm,1,0.712
no_gap,RK71a7Ou0dd9RDl,conj,mm,sim_conj_mm,1,0.677
no_gap,RK71a7Ou0dd9RDl,conj,m,sim_conj_m,1,1.23
no_gap,RK71a7Ou0dd9RDl,conj,m,sim_conj_m,1,0.732
no_gap,RK71a7Ou0dd9RDl,conj,mm,sim_conj_mm,1,1.307
no_gap,RK71a7Ou0dd9RDl,conj,mm,sim_conj_mm,1,0.793
no_gap,RK71a7Ou0dd9RDl,conj,m,sim_conj_m,1,0.86
no_gap,RK71a7Ou0dd9RDl,conj,m,sim_conj_m,1,0.635
no_gap,RK71a7Ou0dd9RDl,conj,mm,sim_conj_mm,1,0.976
no_gap,RK71a7Ou0dd9RDl,conj,mm,sim_conj_mm,1,1.132
no_gap,RK71a7Ou0dd9RDl,sing,m,sim_sing_m,1,1.349
no_gap,RK71a7Ou0dd9RDl,sing,m,sim_sing_m,1,0.993
no_gap,RK71a7Ou0dd9RDl,sing,mm,sim_sing_mm,1,1.619
no_gap,RK71a7Ou0dd9RDl,sing,mm,sim_sing_mm,1,1.267
no_gap,RK71a7Ou0dd9RDl,sing,m,sim_sing_m,1,0.966
no_gap,RK71a7Ou0dd9RDl,sing,m,sim_sing_m,1,0.794
no_gap,RK71a7Ou0dd9RDl,sing,mm,sim_sing_mm,1,1.53
no_gap,RK71a7Ou0dd9RDl,sing,mm,sim_sing_mm,1,0.938
no_gap,RK71a7Ou0dd9RDl,sing,m,sim_sing_m,1,0.649
no_gap,RK71a7Ou0dd9RDl,sing,m,sim_sing_m,1,1.08
no_gap,RK71a7Ou0dd9RDl,sing,mm,sim_sing_mm,1,0.809
no_gap,RK71a7Ou0dd9RDl,sing,mm,sim_sing_mm,1,0.965
no_gap,RK71a7Ou0dd9RDl,sing,m,sim_sing_m,1,2.149
no_gap,RK71a7Ou0dd9RDl,sing,m,sim_sing_m,1,1.12
no_gap,RK71a7Ou0dd9RDl,sing,mm,sim_sing_mm,1,1.612
no_gap,RK71a7Ou0dd9RDl,sing,mm,sim_sing_mm,1,1.221
no_gap,RKqDdYqdsxJyWIf,conj,m,sim_conj_m,1,0.882
no_gap,RKqDdYqdsxJyWIf,conj,m,sim_conj_m,1,0.935
no_gap,RKqDdYqdsxJyWIf,conj,mm,sim_conj_mm,1,0.498
no_gap,RKqDdYqdsxJyWIf,conj,mm,sim_conj_mm,1,0.547
no_gap,RKqDdYqdsxJyWIf,conj,m,sim_conj_m,1,0.456
no_gap,RKqDdYqdsxJyWIf,conj,m,sim_conj_m,1,0.549
no_gap,RKqDdYqdsxJyWIf,conj,mm,sim_conj_mm,1,0.599
no_gap,RKqDdYqdsxJyWIf,conj,mm,sim_conj_mm,1,0.731
no_gap,RKqDdYqdsxJyWIf,conj,m,sim_conj_m,1,0.942
no_gap,RKqDdYqdsxJyWIf,conj,m,sim_conj_m,1,0.744
no_gap,RKqDdYqdsxJyWIf,conj,mm,sim_conj_mm,1,0.502
no_gap,RKqDdYqdsxJyWIf,conj,mm,sim_conj_mm,1,0.955
no_gap,RKqDdYqdsxJyWIf,conj,m,sim_conj_m,1,1.081
no_gap,RKqDdYqdsxJyWIf,conj,m,sim_conj_m,1,0.473
no_gap,RKqDdYqdsxJyWIf,conj,mm,sim_conj_mm,1,0.599
no_gap,RKqDdYqdsxJyWIf,conj,mm,sim_conj_mm,1,0.594
no_gap,RKqDdYqdsxJyWIf,sing,m,sim_sing_m,1,0.585
no_gap,RKqDdYqdsxJyWIf,sing,m,sim_sing_m,1,0.542
no_gap,RKqDdYqdsxJyWIf,sing,mm,sim_sing_mm,1,0.683
no_gap,RKqDdYqdsxJyWIf,sing,mm,sim_sing_mm,1,0.657
no_gap,RKqDdYqdsxJyWIf,sing,m,sim_sing_m,1,1.311
no_gap,RKqDdYqdsxJyWIf,sing,m,sim_sing_m,1,0.699
no_gap,RKqDdYqdsxJyWIf,sing,mm,sim_sing_mm,1,0.677
no_gap,RKqDdYqdsxJyWIf,sing,mm,sim_sing_mm,1,0.62
no_gap,RKqDdYqdsxJyWIf,sing,m,sim_sing_m,1,1.269
no_gap,RKqDdYqdsxJyWIf,sing,m,sim_sing_m,1,0.763
no_gap,RKqDdYqdsxJyWIf,sing,mm,sim_sing_mm,1,0.687
no_gap,RKqDdYqdsxJyWIf,sing,mm,sim_sing_mm,0,0.683
no_gap,RKqDdYqdsxJyWIf,sing,m,sim_sing_m,1,1.07
no_gap,RKqDdYqdsxJyWIf,sing,m,sim_sing_m,1,0.527
no_gap,RKqDdYqdsxJyWIf,sing,mm,sim_sing_mm,1,0.915
no_gap,RKqDdYqdsxJyWIf,sing,mm,sim_sing_mm,1,0.906
no_gap,RLXmTvk5iLuGEaA,conj,m,sim_conj_m,1,0.674
no_gap,RLXmTvk5iLuGEaA,conj,m,sim_conj_m,1,0.613
no_gap,RLXmTvk5iLuGEaA,conj,mm,sim_conj_mm,1,0.643
no_gap,RLXmTvk5iLuGEaA,conj,mm,sim_conj_mm,1,0.631
no_gap,RLXmTvk5iLuGEaA,conj,m,sim_conj_m,1,0.581
no_gap,RLXmTvk5iLuGEaA,conj,m,sim_conj_m,1,0.445
no_gap,RLXmTvk5iLuGEaA,conj,mm,sim_conj_mm,1,0.551
no_gap,RLXmTvk5iLuGEaA,conj,mm,sim_conj_mm,1,0.571
no_gap,RLXmTvk5iLuGEaA,conj,m,sim_conj_m,1,0.91
no_gap,RLXmTvk5iLuGEaA,conj,m,sim_conj_m,1,1.041
no_gap,RLXmTvk5iLuGEaA,conj,mm,sim_conj_mm,1,0.682
no_gap,RLXmTvk5iLuGEaA,conj,mm,sim_conj_mm,1,0.583
no_gap,RLXmTvk5iLuGEaA,conj,m,sim_conj_m,1,0.488
no_gap,RLXmTvk5iLuGEaA,conj,m,sim_conj_m,1,0.776
no_gap,RLXmTvk5iLuGEaA,conj,mm,sim_conj_mm,1,0.853
no_gap,RLXmTvk5iLuGEaA,conj,mm,sim_conj_mm,1,0.704
no_gap,RLXmTvk5iLuGEaA,sing,m,sim_sing_m,1,1.072
no_gap,RLXmTvk5iLuGEaA,sing,m,sim_sing_m,1,0.812
no_gap,RLXmTvk5iLuGEaA,sing,mm,sim_sing_mm,1,0.66
no_gap,RLXmTvk5iLuGEaA,sing,mm,sim_sing_mm,1,0.607
no_gap,RLXmTvk5iLuGEaA,sing,m,sim_sing_m,1,3.129
no_gap,RLXmTvk5iLuGEaA,sing,m,sim_sing_m,1,0.612
no_gap,RLXmTvk5iLuGEaA,sing,mm,sim_sing_mm,1,0.785
no_gap,RLXmTvk5iLuGEaA,sing,mm,sim_sing_mm,1,0.495
no_gap,RLXmTvk5iLuGEaA,sing,m,sim_sing_m,0,1.06
no_gap,RLXmTvk5iLuGEaA,sing,m,sim_sing_m,1,0.655
no_gap,RLXmTvk5iLuGEaA,sing,mm,sim_sing_mm,1,0.902
no_gap,RLXmTvk5iLuGEaA,sing,mm,sim_sing_mm,1,0.73
no_gap,RLXmTvk5iLuGEaA,sing,m,sim_sing_m,1,0.53
no_gap,RLXmTvk5iLuGEaA,sing,m,sim_sing_m,1,0.575
no_gap,RLXmTvk5iLuGEaA,sing,mm,sim_sing_mm,1,1.232
no_gap,RLXmTvk5iLuGEaA,sing,mm,sim_sing_mm,1,0.753
no_gap,RlzzukvJq3atYiQ,conj,m,sim_conj_m,1,1.057
no_gap,RlzzukvJq3atYiQ,conj,m,sim_conj_m,1,0.51
no_gap,RlzzukvJq3atYiQ,conj,mm,sim_conj_mm,1,0.71
no_gap,RlzzukvJq3atYiQ,conj,mm,sim_conj_mm,1,0.495
no_gap,RlzzukvJq3atYiQ,conj,m,sim_conj_m,1,0.735
no_gap,RlzzukvJq3atYiQ,conj,m,sim_conj_m,1,0.681
no_gap,RlzzukvJq3atYiQ,conj,mm,sim_conj_mm,1,0.581
no_gap,RlzzukvJq3atYiQ,conj,mm,sim_conj_mm,1,0.469
no_gap,RlzzukvJq3atYiQ,conj,m,sim_conj_m,1,0.38
no_gap,RlzzukvJq3atYiQ,conj,m,sim_conj_m,1,0.927
no_gap,RlzzukvJq3atYiQ,conj,mm,sim_conj_mm,1,0.69
no_gap,RlzzukvJq3atYiQ,conj,mm,sim_conj_mm,1,0.697
no_gap,RlzzukvJq3atYiQ,conj,m,sim_conj_m,1,0.641
no_gap,RlzzukvJq3atYiQ,conj,m,sim_conj_m,1,0.684
no_gap,RlzzukvJq3atYiQ,conj,mm,sim_conj_mm,1,0.723
no_gap,RlzzukvJq3atYiQ,conj,mm,sim_conj_mm,1,0.466
no_gap,RlzzukvJq3atYiQ,sing,m,sim_sing_m,1,0.502
no_gap,RlzzukvJq3atYiQ,sing,m,sim_sing_m,1,0.612
no_gap,RlzzukvJq3atYiQ,sing,mm,sim_sing_mm,1,0.937
no_gap,RlzzukvJq3atYiQ,sing,mm,sim_sing_mm,1,0.714
no_gap,RlzzukvJq3atYiQ,sing,m,sim_sing_m,1,0.515
no_gap,RlzzukvJq3atYiQ,sing,m,sim_sing_m,1,0.482
no_gap,RlzzukvJq3atYiQ,sing,mm,sim_sing_mm,1,0.9
no_gap,RlzzukvJq3atYiQ,sing,mm,sim_sing_mm,1,0.604
no_gap,RlzzukvJq3atYiQ,sing,m,sim_sing_m,0,0.457
no_gap,RlzzukvJq3atYiQ,sing,m,sim_sing_m,1,0.623
no_gap,RlzzukvJq3atYiQ,sing,mm,sim_sing_mm,1,0.323
no_gap,RlzzukvJq3atYiQ,sing,mm,sim_sing_mm,0,0.522
no_gap,RlzzukvJq3atYiQ,sing,m,sim_sing_m,0,0.924
no_gap,RlzzukvJq3atYiQ,sing,m,sim_sing_m,1,0.416
no_gap,RlzzukvJq3atYiQ,sing,mm,sim_sing_mm,0,0.419
no_gap,RlzzukvJq3atYiQ,sing,mm,sim_sing_mm,1,0.893
no_gap,RmC4cBupoC4tHV4,conj,m,sim_conj_m,1,0.984
no_gap,RmC4cBupoC4tHV4,conj,m,sim_conj_m,1,0.45
no_gap,RmC4cBupoC4tHV4,conj,mm,sim_conj_mm,1,0.631
no_gap,RmC4cBupoC4tHV4,conj,mm,sim_conj_mm,1,0.798
no_gap,RmC4cBupoC4tHV4,conj,m,sim_conj_m,1,0.508
no_gap,RmC4cBupoC4tHV4,conj,m,sim_conj_m,1,0.469
no_gap,RmC4cBupoC4tHV4,conj,mm,sim_conj_mm,1,0.504
no_gap,RmC4cBupoC4tHV4,conj,mm,sim_conj_mm,1,0.663
no_gap,RmC4cBupoC4tHV4,conj,m,sim_conj_m,1,0.787
no_gap,RmC4cBupoC4tHV4,conj,m,sim_conj_m,1,0.923
no_gap,RmC4cBupoC4tHV4,conj,mm,sim_conj_mm,1,0.769
no_gap,RmC4cBupoC4tHV4,conj,mm,sim_conj_mm,1,0.822
no_gap,RmC4cBupoC4tHV4,conj,m,sim_conj_m,1,0.775
no_gap,RmC4cBupoC4tHV4,conj,m,sim_conj_m,1,1.277
no_gap,RmC4cBupoC4tHV4,conj,mm,sim_conj_mm,1,0.711
no_gap,RmC4cBupoC4tHV4,conj,mm,sim_conj_mm,1,0.647
no_gap,RmC4cBupoC4tHV4,sing,m,sim_sing_m,1,1.117
no_gap,RmC4cBupoC4tHV4,sing,m,sim_sing_m,1,0.721
no_gap,RmC4cBupoC4tHV4,sing,mm,sim_sing_mm,1,0.847
no_gap,RmC4cBupoC4tHV4,sing,mm,sim_sing_mm,1,1.144
no_gap,RmC4cBupoC4tHV4,sing,m,sim_sing_m,1,0.573
no_gap,RmC4cBupoC4tHV4,sing,m,sim_sing_m,1,1.737
no_gap,RmC4cBupoC4tHV4,sing,mm,sim_sing_mm,1,0.785
no_gap,RmC4cBupoC4tHV4,sing,mm,sim_sing_mm,1,0.745
no_gap,RmC4cBupoC4tHV4,sing,m,sim_sing_m,1,0.661
no_gap,RmC4cBupoC4tHV4,sing,m,sim_sing_m,1,0.881
no_gap,RmC4cBupoC4tHV4,sing,mm,sim_sing_mm,1,0.705
no_gap,RmC4cBupoC4tHV4,sing,mm,sim_sing_mm,1,0.852
no_gap,RmC4cBupoC4tHV4,sing,m,sim_sing_m,1,0.721
no_gap,RmC4cBupoC4tHV4,sing,m,sim_sing_m,1,0.512
no_gap,RmC4cBupoC4tHV4,sing,mm,sim_sing_mm,1,0.538
no_gap,RmC4cBupoC4tHV4,sing,mm,sim_sing_mm,1,1.167
no_gap,RmIULYprIrOv92G,conj,m,sim_conj_m,1,0.623
no_gap,RmIULYprIrOv92G,conj,m,sim_conj_m,1,0.455
no_gap,RmIULYprIrOv92G,conj,mm,sim_conj_mm,1,0.719
no_gap,RmIULYprIrOv92G,conj,mm,sim_conj_mm,1,0.588
no_gap,RmIULYprIrOv92G,conj,m,sim_conj_m,1,0.498
no_gap,RmIULYprIrOv92G,conj,m,sim_conj_m,1,0.478
no_gap,RmIULYprIrOv92G,conj,mm,sim_conj_mm,1,0.49
no_gap,RmIULYprIrOv92G,conj,mm,sim_conj_mm,1,0.566
no_gap,RmIULYprIrOv92G,conj,m,sim_conj_m,1,0.904
no_gap,RmIULYprIrOv92G,conj,m,sim_conj_m,1,0.476
no_gap,RmIULYprIrOv92G,conj,mm,sim_conj_mm,1,0.541
no_gap,RmIULYprIrOv92G,conj,mm,sim_conj_mm,1,0.442
no_gap,RmIULYprIrOv92G,conj,m,sim_conj_m,1,0.529
no_gap,RmIULYprIrOv92G,conj,m,sim_conj_m,1,0.401
no_gap,RmIULYprIrOv92G,conj,mm,sim_conj_mm,1,0.952
no_gap,RmIULYprIrOv92G,conj,mm,sim_conj_mm,1,0.587
no_gap,RmIULYprIrOv92G,sing,m,sim_sing_m,1,0.759
no_gap,RmIULYprIrOv92G,sing,m,sim_sing_m,1,0.495
no_gap,RmIULYprIrOv92G,sing,mm,sim_sing_mm,1,0.67
no_gap,RmIULYprIrOv92G,sing,mm,sim_sing_mm,1,0.687
no_gap,RmIULYprIrOv92G,sing,m,sim_sing_m,1,0.823
no_gap,RmIULYprIrOv92G,sing,m,sim_sing_m,1,0.995
no_gap,RmIULYprIrOv92G,sing,mm,sim_sing_mm,1,0.778
no_gap,RmIULYprIrOv92G,sing,mm,sim_sing_mm,1,0.791
no_gap,RmIULYprIrOv92G,sing,m,sim_sing_m,1,0.512
no_gap,RmIULYprIrOv92G,sing,m,sim_sing_m,1,1.037
no_gap,RmIULYprIrOv92G,sing,mm,sim_sing_mm,0,1.224
no_gap,RmIULYprIrOv92G,sing,mm,sim_sing_mm,1,0.809
no_gap,RmIULYprIrOv92G,sing,m,sim_sing_m,1,0.492
no_gap,RmIULYprIrOv92G,sing,m,sim_sing_m,1,0.74
no_gap,RmIULYprIrOv92G,sing,mm,sim_sing_mm,1,0.808
no_gap,RmIULYprIrOv92G,sing,mm,sim_sing_mm,1,0.66
no_gap,RmmFOe3uknXraci,conj,m,sim_conj_m,1,1.149
no_gap,RmmFOe3uknXraci,conj,m,sim_conj_m,1,1.248
no_gap,RmmFOe3uknXraci,conj,mm,sim_conj_mm,1,1.077
no_gap,RmmFOe3uknXraci,conj,mm,sim_conj_mm,1,1.192
no_gap,RmmFOe3uknXraci,conj,m,sim_conj_m,1,0.918
no_gap,RmmFOe3uknXraci,conj,m,sim_conj_m,1,1.218
no_gap,RmmFOe3uknXraci,conj,mm,sim_conj_mm,1,1.23
no_gap,RmmFOe3uknXraci,conj,mm,sim_conj_mm,1,0.965
no_gap,RmmFOe3uknXraci,conj,m,sim_conj_m,1,1.617
no_gap,RmmFOe3uknXraci,conj,m,sim_conj_m,1,0.767
no_gap,RmmFOe3uknXraci,conj,mm,sim_conj_mm,1,1.236
no_gap,RmmFOe3uknXraci,conj,mm,sim_conj_mm,1,0.898
no_gap,RmmFOe3uknXraci,conj,m,sim_conj_m,1,0.947
no_gap,RmmFOe3uknXraci,conj,m,sim_conj_m,1,1.525
no_gap,RmmFOe3uknXraci,conj,mm,sim_conj_mm,1,1.503
no_gap,RmmFOe3uknXraci,conj,mm,sim_conj_mm,1,0.797
no_gap,RmmFOe3uknXraci,sing,m,sim_sing_m,1,0.802
no_gap,RmmFOe3uknXraci,sing,m,sim_sing_m,0,2.354
no_gap,RmmFOe3uknXraci,sing,mm,sim_sing_mm,1,2.494
no_gap,RmmFOe3uknXraci,sing,mm,sim_sing_mm,1,0.885
no_gap,RmmFOe3uknXraci,sing,m,sim_sing_m,1,2.034
no_gap,RmmFOe3uknXraci,sing,m,sim_sing_m,1,8.296
no_gap,RmmFOe3uknXraci,sing,mm,sim_sing_mm,1,0.799
no_gap,RmmFOe3uknXraci,sing,mm,sim_sing_mm,1,0.996
no_gap,RmmFOe3uknXraci,sing,m,sim_sing_m,1,1.059
no_gap,RmmFOe3uknXraci,sing,m,sim_sing_m,1,1.23
no_gap,RmmFOe3uknXraci,sing,mm,sim_sing_mm,1,2.52
no_gap,RmmFOe3uknXraci,sing,mm,sim_sing_mm,1,0.837
no_gap,RmmFOe3uknXraci,sing,m,sim_sing_m,1,1.148
no_gap,RmmFOe3uknXraci,sing,m,sim_sing_m,1,0.814
no_gap,RmmFOe3uknXraci,sing,mm,sim_sing_mm,1,2.228
no_gap,RmmFOe3uknXraci,sing,mm,sim_sing_mm,1,2.125
no_gap,RnOO1BGaTXG8VNZ,conj,m,sim_conj_m,1,0.722
no_gap,RnOO1BGaTXG8VNZ,conj,m,sim_conj_m,1,1.418
no_gap,RnOO1BGaTXG8VNZ,conj,mm,sim_conj_mm,0,65.547
no_gap,RnOO1BGaTXG8VNZ,conj,mm,sim_conj_mm,1,0.751
no_gap,RnOO1BGaTXG8VNZ,conj,m,sim_conj_m,1,0.59
no_gap,RnOO1BGaTXG8VNZ,conj,m,sim_conj_m,1,1.769
no_gap,RnOO1BGaTXG8VNZ,conj,mm,sim_conj_mm,1,3.261
no_gap,RnOO1BGaTXG8VNZ,conj,mm,sim_conj_mm,1,1.157
no_gap,RnOO1BGaTXG8VNZ,conj,m,sim_conj_m,1,0.852
no_gap,RnOO1BGaTXG8VNZ,conj,m,sim_conj_m,1,0.959
no_gap,RnOO1BGaTXG8VNZ,conj,mm,sim_conj_mm,1,9.836
no_gap,RnOO1BGaTXG8VNZ,conj,mm,sim_conj_mm,1,1.163
no_gap,RnOO1BGaTXG8VNZ,conj,m,sim_conj_m,1,1.217
no_gap,RnOO1BGaTXG8VNZ,conj,m,sim_conj_m,1,1.12
no_gap,RnOO1BGaTXG8VNZ,conj,mm,sim_conj_mm,1,2.346
no_gap,RnOO1BGaTXG8VNZ,conj,mm,sim_conj_mm,1,13.609
no_gap,RnOO1BGaTXG8VNZ,sing,m,sim_sing_m,1,0.756
no_gap,RnOO1BGaTXG8VNZ,sing,m,sim_sing_m,1,0.648
no_gap,RnOO1BGaTXG8VNZ,sing,mm,sim_sing_mm,1,0.849
no_gap,RnOO1BGaTXG8VNZ,sing,mm,sim_sing_mm,1,1.027
no_gap,RnOO1BGaTXG8VNZ,sing,m,sim_sing_m,1,0.889
no_gap,RnOO1BGaTXG8VNZ,sing,m,sim_sing_m,1,0.583
no_gap,RnOO1BGaTXG8VNZ,sing,mm,sim_sing_mm,1,1.087
no_gap,RnOO1BGaTXG8VNZ,sing,mm,sim_sing_mm,1,1.61
no_gap,RnOO1BGaTXG8VNZ,sing,m,sim_sing_m,1,0.934
no_gap,RnOO1BGaTXG8VNZ,sing,m,sim_sing_m,1,0.73
no_gap,RnOO1BGaTXG8VNZ,sing,mm,sim_sing_mm,1,0.801
no_gap,RnOO1BGaTXG8VNZ,sing,mm,sim_sing_mm,1,0.981
no_gap,RnOO1BGaTXG8VNZ,sing,m,sim_sing_m,0,0.811
no_gap,RnOO1BGaTXG8VNZ,sing,m,sim_sing_m,1,1.084
no_gap,RnOO1BGaTXG8VNZ,sing,mm,sim_sing_mm,1,2.069
no_gap,RnOO1BGaTXG8VNZ,sing,mm,sim_sing_mm,1,0.939
no_gap,RnOQ0qbgqQcSRz6,conj,m,sim_conj_m,1,0.5
no_gap,RnOQ0qbgqQcSRz6,conj,m,sim_conj_m,1,0.558
no_gap,RnOQ0qbgqQcSRz6,conj,mm,sim_conj_mm,1,0.592
no_gap,RnOQ0qbgqQcSRz6,conj,mm,sim_conj_mm,1,1.463
no_gap,RnOQ0qbgqQcSRz6,conj,m,sim_conj_m,1,0.591
no_gap,RnOQ0qbgqQcSRz6,conj,m,sim_conj_m,1,1.228
no_gap,RnOQ0qbgqQcSRz6,conj,mm,sim_conj_mm,1,0.651
no_gap,RnOQ0qbgqQcSRz6,conj,mm,sim_conj_mm,1,1.104
no_gap,RnOQ0qbgqQcSRz6,conj,m,sim_conj_m,1,0.828
no_gap,RnOQ0qbgqQcSRz6,conj,m,sim_conj_m,1,0.737
no_gap,RnOQ0qbgqQcSRz6,conj,mm,sim_conj_mm,1,0.806
no_gap,RnOQ0qbgqQcSRz6,conj,mm,sim_conj_mm,1,0.583
no_gap,RnOQ0qbgqQcSRz6,conj,m,sim_conj_m,1,1.334
no_gap,RnOQ0qbgqQcSRz6,conj,m,sim_conj_m,1,0.64
no_gap,RnOQ0qbgqQcSRz6,conj,mm,sim_conj_mm,1,0.939
no_gap,RnOQ0qbgqQcSRz6,conj,mm,sim_conj_mm,1,1.028
no_gap,RnOQ0qbgqQcSRz6,sing,m,sim_sing_m,1,0.902
no_gap,RnOQ0qbgqQcSRz6,sing,m,sim_sing_m,1,0.469
no_gap,RnOQ0qbgqQcSRz6,sing,mm,sim_sing_mm,1,1.097
no_gap,RnOQ0qbgqQcSRz6,sing,mm,sim_sing_mm,1,0.615
no_gap,RnOQ0qbgqQcSRz6,sing,m,sim_sing_m,1,1.04
no_gap,RnOQ0qbgqQcSRz6,sing,m,sim_sing_m,1,0.594
no_gap,RnOQ0qbgqQcSRz6,sing,mm,sim_sing_mm,1,0.6
no_gap,RnOQ0qbgqQcSRz6,sing,mm,sim_sing_mm,1,0.635
no_gap,RnOQ0qbgqQcSRz6,sing,m,sim_sing_m,1,1.087
no_gap,RnOQ0qbgqQcSRz6,sing,m,sim_sing_m,1,0.743
no_gap,RnOQ0qbgqQcSRz6,sing,mm,sim_sing_mm,1,1.587
no_gap,RnOQ0qbgqQcSRz6,sing,mm,sim_sing_mm,1,0.732
no_gap,RnOQ0qbgqQcSRz6,sing,m,sim_sing_m,1,0.98
no_gap,RnOQ0qbgqQcSRz6,sing,m,sim_sing_m,1,0.719
no_gap,RnOQ0qbgqQcSRz6,sing,mm,sim_sing_mm,1,1.111
no_gap,RnOQ0qbgqQcSRz6,sing,mm,sim_sing_mm,1,1.159
no_gap,ROkOyQCupky29ws,conj,m,sim_conj_m,1,1.371
no_gap,ROkOyQCupky29ws,conj,m,sim_conj_m,0,0.616
no_gap,ROkOyQCupky29ws,conj,mm,sim_conj_mm,1,0.555
no_gap,ROkOyQCupky29ws,conj,mm,sim_conj_mm,1,15.221
no_gap,ROkOyQCupky29ws,conj,m,sim_conj_m,1,0.795
no_gap,ROkOyQCupky29ws,conj,m,sim_conj_m,1,0.412
no_gap,ROkOyQCupky29ws,conj,mm,sim_conj_mm,1,3.961
no_gap,ROkOyQCupky29ws,conj,mm,sim_conj_mm,1,1.731
no_gap,ROkOyQCupky29ws,conj,m,sim_conj_m,1,0.4
no_gap,ROkOyQCupky29ws,conj,m,sim_conj_m,1,0.713
no_gap,ROkOyQCupky29ws,conj,mm,sim_conj_mm,1,0.627
no_gap,ROkOyQCupky29ws,conj,mm,sim_conj_mm,1,1.222
no_gap,ROkOyQCupky29ws,conj,m,sim_conj_m,1,0.428
no_gap,ROkOyQCupky29ws,conj,m,sim_conj_m,1,0.401
no_gap,ROkOyQCupky29ws,conj,mm,sim_conj_mm,1,0.921
no_gap,ROkOyQCupky29ws,conj,mm,sim_conj_mm,1,0.489
no_gap,ROkOyQCupky29ws,sing,m,sim_sing_m,1,1.185
no_gap,ROkOyQCupky29ws,sing,m,sim_sing_m,1,0.441
no_gap,ROkOyQCupky29ws,sing,mm,sim_sing_mm,1,0.648
no_gap,ROkOyQCupky29ws,sing,mm,sim_sing_mm,1,1.399
no_gap,ROkOyQCupky29ws,sing,m,sim_sing_m,1,0.656
no_gap,ROkOyQCupky29ws,sing,m,sim_sing_m,1,0.794
no_gap,ROkOyQCupky29ws,sing,mm,sim_sing_mm,1,0.896
no_gap,ROkOyQCupky29ws,sing,mm,sim_sing_mm,1,0.576
no_gap,ROkOyQCupky29ws,sing,m,sim_sing_m,1,0.618
no_gap,ROkOyQCupky29ws,sing,m,sim_sing_m,1,0.69
no_gap,ROkOyQCupky29ws,sing,mm,sim_sing_mm,0,0.768
no_gap,ROkOyQCupky29ws,sing,mm,sim_sing_mm,0,0.653
no_gap,ROkOyQCupky29ws,sing,m,sim_sing_m,1,0.443
no_gap,ROkOyQCupky29ws,sing,m,sim_sing_m,1,0.494
no_gap,ROkOyQCupky29ws,sing,mm,sim_sing_mm,1,1.234
no_gap,ROkOyQCupky29ws,sing,mm,sim_sing_mm,1,0.539
no_gap,ROVnUIQoDvuoLoa,conj,m,sim_conj_m,1,0.694
no_gap,ROVnUIQoDvuoLoa,conj,m,sim_conj_m,1,1.683
no_gap,ROVnUIQoDvuoLoa,conj,mm,sim_conj_mm,1,1.174
no_gap,ROVnUIQoDvuoLoa,conj,mm,sim_conj_mm,1,0.998
no_gap,ROVnUIQoDvuoLoa,conj,m,sim_conj_m,1,0.779
no_gap,ROVnUIQoDvuoLoa,conj,m,sim_conj_m,1,0.593
no_gap,ROVnUIQoDvuoLoa,conj,mm,sim_conj_mm,1,0.432
no_gap,ROVnUIQoDvuoLoa,conj,mm,sim_conj_mm,1,0.777
no_gap,ROVnUIQoDvuoLoa,conj,m,sim_conj_m,1,0.614
no_gap,ROVnUIQoDvuoLoa,conj,m,sim_conj_m,1,1.123
no_gap,ROVnUIQoDvuoLoa,conj,mm,sim_conj_mm,1,2.732
no_gap,ROVnUIQoDvuoLoa,conj,mm,sim_conj_mm,1,0.541
no_gap,ROVnUIQoDvuoLoa,conj,m,sim_conj_m,1,1.52
no_gap,ROVnUIQoDvuoLoa,conj,m,sim_conj_m,1,0.835
no_gap,ROVnUIQoDvuoLoa,conj,mm,sim_conj_mm,1,0.666
no_gap,ROVnUIQoDvuoLoa,conj,mm,sim_conj_mm,1,1.323
no_gap,ROVnUIQoDvuoLoa,sing,m,sim_sing_m,1,2.966
no_gap,ROVnUIQoDvuoLoa,sing,m,sim_sing_m,1,1.719
no_gap,ROVnUIQoDvuoLoa,sing,mm,sim_sing_mm,1,1.25
no_gap,ROVnUIQoDvuoLoa,sing,mm,sim_sing_mm,1,1.301
no_gap,ROVnUIQoDvuoLoa,sing,m,sim_sing_m,1,1.595
no_gap,ROVnUIQoDvuoLoa,sing,m,sim_sing_m,1,0.982
no_gap,ROVnUIQoDvuoLoa,sing,mm,sim_sing_mm,1,1.116
no_gap,ROVnUIQoDvuoLoa,sing,mm,sim_sing_mm,1,1.608
no_gap,ROVnUIQoDvuoLoa,sing,m,sim_sing_m,1,0.995
no_gap,ROVnUIQoDvuoLoa,sing,m,sim_sing_m,1,1.421
no_gap,ROVnUIQoDvuoLoa,sing,mm,sim_sing_mm,1,1.459
no_gap,ROVnUIQoDvuoLoa,sing,mm,sim_sing_mm,1,1.093
no_gap,ROVnUIQoDvuoLoa,sing,m,sim_sing_m,0,0.973
no_gap,ROVnUIQoDvuoLoa,sing,m,sim_sing_m,1,1.087
no_gap,ROVnUIQoDvuoLoa,sing,mm,sim_sing_mm,1,1.66
no_gap,ROVnUIQoDvuoLoa,sing,mm,sim_sing_mm,1,1.792
no_gap,RPemspRhIIq93Jq,conj,m,sim_conj_m,1,1.47
no_gap,RPemspRhIIq93Jq,conj,m,sim_conj_m,1,1.326
no_gap,RPemspRhIIq93Jq,conj,mm,sim_conj_mm,1,1.665
no_gap,RPemspRhIIq93Jq,conj,mm,sim_conj_mm,1,1.281
no_gap,RPemspRhIIq93Jq,conj,m,sim_conj_m,1,1.751
no_gap,RPemspRhIIq93Jq,conj,m,sim_conj_m,1,3.44
no_gap,RPemspRhIIq93Jq,conj,mm,sim_conj_mm,1,1.373
no_gap,RPemspRhIIq93Jq,conj,mm,sim_conj_mm,1,5.762
no_gap,RPemspRhIIq93Jq,conj,m,sim_conj_m,1,1.447
no_gap,RPemspRhIIq93Jq,conj,m,sim_conj_m,1,1.411
no_gap,RPemspRhIIq93Jq,conj,mm,sim_conj_mm,1,1.475
no_gap,RPemspRhIIq93Jq,conj,mm,sim_conj_mm,1,1.384
no_gap,RPemspRhIIq93Jq,conj,m,sim_conj_m,1,1.68
no_gap,RPemspRhIIq93Jq,conj,m,sim_conj_m,1,1.192
no_gap,RPemspRhIIq93Jq,conj,mm,sim_conj_mm,1,1.783
no_gap,RPemspRhIIq93Jq,conj,mm,sim_conj_mm,1,2.851
no_gap,RPemspRhIIq93Jq,sing,m,sim_sing_m,0,1.741
no_gap,RPemspRhIIq93Jq,sing,m,sim_sing_m,1,1.186
no_gap,RPemspRhIIq93Jq,sing,mm,sim_sing_mm,1,1.282
no_gap,RPemspRhIIq93Jq,sing,mm,sim_sing_mm,1,2.191
no_gap,RPemspRhIIq93Jq,sing,m,sim_sing_m,1,1.758
no_gap,RPemspRhIIq93Jq,sing,m,sim_sing_m,1,2.548
no_gap,RPemspRhIIq93Jq,sing,mm,sim_sing_mm,1,1.249
no_gap,RPemspRhIIq93Jq,sing,mm,sim_sing_mm,0,2.36
no_gap,RPemspRhIIq93Jq,sing,m,sim_sing_m,1,1.204
no_gap,RPemspRhIIq93Jq,sing,m,sim_sing_m,1,1.222
no_gap,RPemspRhIIq93Jq,sing,mm,sim_sing_mm,1,2.239
no_gap,RPemspRhIIq93Jq,sing,mm,sim_sing_mm,1,1.468
no_gap,RPemspRhIIq93Jq,sing,m,sim_sing_m,1,3.775
no_gap,RPemspRhIIq93Jq,sing,m,sim_sing_m,1,3.177
no_gap,RPemspRhIIq93Jq,sing,mm,sim_sing_mm,1,1.687
no_gap,RPemspRhIIq93Jq,sing,mm,sim_sing_mm,1,3.08
no_gap,RpMrEEZMbPml0WU,conj,m,sim_conj_m,1,0.643
no_gap,RpMrEEZMbPml0WU,conj,m,sim_conj_m,1,0.424
no_gap,RpMrEEZMbPml0WU,conj,mm,sim_conj_mm,1,1.165
no_gap,RpMrEEZMbPml0WU,conj,mm,sim_conj_mm,1,0.791
no_gap,RpMrEEZMbPml0WU,conj,m,sim_conj_m,1,0.6
no_gap,RpMrEEZMbPml0WU,conj,m,sim_conj_m,0,0.496
no_gap,RpMrEEZMbPml0WU,conj,mm,sim_conj_mm,1,0.765
no_gap,RpMrEEZMbPml0WU,conj,mm,sim_conj_mm,1,0.435
no_gap,RpMrEEZMbPml0WU,conj,m,sim_conj_m,1,0.537
no_gap,RpMrEEZMbPml0WU,conj,m,sim_conj_m,1,0.878
no_gap,RpMrEEZMbPml0WU,conj,mm,sim_conj_mm,1,0.952
no_gap,RpMrEEZMbPml0WU,conj,mm,sim_conj_mm,1,0.547
no_gap,RpMrEEZMbPml0WU,conj,m,sim_conj_m,1,0.444
no_gap,RpMrEEZMbPml0WU,conj,m,sim_conj_m,1,0.739
no_gap,RpMrEEZMbPml0WU,conj,mm,sim_conj_mm,1,0.578
no_gap,RpMrEEZMbPml0WU,conj,mm,sim_conj_mm,1,0.511
no_gap,RpMrEEZMbPml0WU,sing,m,sim_sing_m,1,0.857
no_gap,RpMrEEZMbPml0WU,sing,m,sim_sing_m,1,0.566
no_gap,RpMrEEZMbPml0WU,sing,mm,sim_sing_mm,1,0.891
no_gap,RpMrEEZMbPml0WU,sing,mm,sim_sing_mm,1,0.51
no_gap,RpMrEEZMbPml0WU,sing,m,sim_sing_m,1,0.408
no_gap,RpMrEEZMbPml0WU,sing,m,sim_sing_m,1,1.021
no_gap,RpMrEEZMbPml0WU,sing,mm,sim_sing_mm,1,0.957
no_gap,RpMrEEZMbPml0WU,sing,mm,sim_sing_mm,1,0.683
no_gap,RpMrEEZMbPml0WU,sing,m,sim_sing_m,1,1.409
no_gap,RpMrEEZMbPml0WU,sing,m,sim_sing_m,1,0.788
no_gap,RpMrEEZMbPml0WU,sing,mm,sim_sing_mm,1,1.001
no_gap,RpMrEEZMbPml0WU,sing,mm,sim_sing_mm,1,0.501
no_gap,RpMrEEZMbPml0WU,sing,m,sim_sing_m,1,0.431
no_gap,RpMrEEZMbPml0WU,sing,m,sim_sing_m,1,0.863
no_gap,RpMrEEZMbPml0WU,sing,mm,sim_sing_mm,1,0.784
no_gap,RpMrEEZMbPml0WU,sing,mm,sim_sing_mm,1,0.507
no_gap,RpukYYnbpsfMrZv,conj,m,sim_conj_m,1,1.135
no_gap,RpukYYnbpsfMrZv,conj,m,sim_conj_m,1,0.96
no_gap,RpukYYnbpsfMrZv,conj,mm,sim_conj_mm,1,4.128
no_gap,RpukYYnbpsfMrZv,conj,mm,sim_conj_mm,1,0.75
no_gap,RpukYYnbpsfMrZv,conj,m,sim_conj_m,1,0.656
no_gap,RpukYYnbpsfMrZv,conj,m,sim_conj_m,1,0.489
no_gap,RpukYYnbpsfMrZv,conj,mm,sim_conj_mm,1,0.856
no_gap,RpukYYnbpsfMrZv,conj,mm,sim_conj_mm,1,0.607
no_gap,RpukYYnbpsfMrZv,conj,m,sim_conj_m,1,0.576
no_gap,RpukYYnbpsfMrZv,conj,m,sim_conj_m,1,0.65
no_gap,RpukYYnbpsfMrZv,conj,mm,sim_conj_mm,1,0.732
no_gap,RpukYYnbpsfMrZv,conj,mm,sim_conj_mm,1,0.695
no_gap,RpukYYnbpsfMrZv,conj,m,sim_conj_m,1,0.663
no_gap,RpukYYnbpsfMrZv,conj,m,sim_conj_m,1,0.652
no_gap,RpukYYnbpsfMrZv,conj,mm,sim_conj_mm,1,0.788
no_gap,RpukYYnbpsfMrZv,conj,mm,sim_conj_mm,1,0.544
no_gap,RpukYYnbpsfMrZv,sing,m,sim_sing_m,1,0.489
no_gap,RpukYYnbpsfMrZv,sing,m,sim_sing_m,1,0.817
no_gap,RpukYYnbpsfMrZv,sing,mm,sim_sing_mm,1,0.688
no_gap,RpukYYnbpsfMrZv,sing,mm,sim_sing_mm,1,0.618
no_gap,RpukYYnbpsfMrZv,sing,m,sim_sing_m,1,0.46
no_gap,RpukYYnbpsfMrZv,sing,m,sim_sing_m,1,0.75
no_gap,RpukYYnbpsfMrZv,sing,mm,sim_sing_mm,1,0.833
no_gap,RpukYYnbpsfMrZv,sing,mm,sim_sing_mm,1,0.795
no_gap,RpukYYnbpsfMrZv,sing,m,sim_sing_m,1,0.761
no_gap,RpukYYnbpsfMrZv,sing,m,sim_sing_m,1,0.755
no_gap,RpukYYnbpsfMrZv,sing,mm,sim_sing_mm,1,0.741
no_gap,RpukYYnbpsfMrZv,sing,mm,sim_sing_mm,1,0.941
no_gap,RpukYYnbpsfMrZv,sing,m,sim_sing_m,1,0.456
no_gap,RpukYYnbpsfMrZv,sing,m,sim_sing_m,1,0.683
no_gap,RpukYYnbpsfMrZv,sing,mm,sim_sing_mm,1,0.534
no_gap,RpukYYnbpsfMrZv,sing,mm,sim_sing_mm,1,0.731
no_gap,RPXVhaM73VwX7i7,conj,m,sim_conj_m,1,0.402
no_gap,RPXVhaM73VwX7i7,conj,m,sim_conj_m,1,0.496
no_gap,RPXVhaM73VwX7i7,conj,mm,sim_conj_mm,1,0.446
no_gap,RPXVhaM73VwX7i7,conj,mm,sim_conj_mm,1,0.44
no_gap,RPXVhaM73VwX7i7,conj,m,sim_conj_m,1,0.372
no_gap,RPXVhaM73VwX7i7,conj,m,sim_conj_m,1,0.412
no_gap,RPXVhaM73VwX7i7,conj,mm,sim_conj_mm,1,0.61
no_gap,RPXVhaM73VwX7i7,conj,mm,sim_conj_mm,1,0.396
no_gap,RPXVhaM73VwX7i7,conj,m,sim_conj_m,1,0.361
no_gap,RPXVhaM73VwX7i7,conj,m,sim_conj_m,1,0.377
no_gap,RPXVhaM73VwX7i7,conj,mm,sim_conj_mm,1,0.489
no_gap,RPXVhaM73VwX7i7,conj,mm,sim_conj_mm,1,0.44
no_gap,RPXVhaM73VwX7i7,conj,m,sim_conj_m,1,0.455
no_gap,RPXVhaM73VwX7i7,conj,m,sim_conj_m,1,0.508
no_gap,RPXVhaM73VwX7i7,conj,mm,sim_conj_mm,1,0.449
no_gap,RPXVhaM73VwX7i7,conj,mm,sim_conj_mm,1,0.441
no_gap,RPXVhaM73VwX7i7,sing,m,sim_sing_m,1,0.365
no_gap,RPXVhaM73VwX7i7,sing,m,sim_sing_m,1,0.597
no_gap,RPXVhaM73VwX7i7,sing,mm,sim_sing_mm,1,0.457
no_gap,RPXVhaM73VwX7i7,sing,mm,sim_sing_mm,1,0.519
no_gap,RPXVhaM73VwX7i7,sing,m,sim_sing_m,1,0.429
no_gap,RPXVhaM73VwX7i7,sing,m,sim_sing_m,1,0.476
no_gap,RPXVhaM73VwX7i7,sing,mm,sim_sing_mm,1,0.43
no_gap,RPXVhaM73VwX7i7,sing,mm,sim_sing_mm,1,0.529
no_gap,RPXVhaM73VwX7i7,sing,m,sim_sing_m,1,0.435
no_gap,RPXVhaM73VwX7i7,sing,m,sim_sing_m,1,0.395
no_gap,RPXVhaM73VwX7i7,sing,mm,sim_sing_mm,1,0.392
no_gap,RPXVhaM73VwX7i7,sing,mm,sim_sing_mm,1,0.429
no_gap,RPXVhaM73VwX7i7,sing,m,sim_sing_m,1,0.55
no_gap,RPXVhaM73VwX7i7,sing,m,sim_sing_m,1,0.389
no_gap,RPXVhaM73VwX7i7,sing,mm,sim_sing_mm,1,0.488
no_gap,RPXVhaM73VwX7i7,sing,mm,sim_sing_mm,1,0.533
no_gap,RQDSGYxg9iGBQ1N,conj,m,sim_conj_m,1,1.247
no_gap,RQDSGYxg9iGBQ1N,conj,m,sim_conj_m,1,0.945
no_gap,RQDSGYxg9iGBQ1N,conj,mm,sim_conj_mm,1,1.308
no_gap,RQDSGYxg9iGBQ1N,conj,mm,sim_conj_mm,1,1.205
no_gap,RQDSGYxg9iGBQ1N,conj,m,sim_conj_m,1,1.381
no_gap,RQDSGYxg9iGBQ1N,conj,m,sim_conj_m,1,0.672
no_gap,RQDSGYxg9iGBQ1N,conj,mm,sim_conj_mm,0,1.325
no_gap,RQDSGYxg9iGBQ1N,conj,mm,sim_conj_mm,1,1.271
no_gap,RQDSGYxg9iGBQ1N,conj,m,sim_conj_m,1,1.461
no_gap,RQDSGYxg9iGBQ1N,conj,m,sim_conj_m,1,1.736
no_gap,RQDSGYxg9iGBQ1N,conj,mm,sim_conj_mm,1,0.87
no_gap,RQDSGYxg9iGBQ1N,conj,mm,sim_conj_mm,1,0.94
no_gap,RQDSGYxg9iGBQ1N,conj,m,sim_conj_m,1,0.992
no_gap,RQDSGYxg9iGBQ1N,conj,m,sim_conj_m,1,1.32
no_gap,RQDSGYxg9iGBQ1N,conj,mm,sim_conj_mm,1,0.94
no_gap,RQDSGYxg9iGBQ1N,conj,mm,sim_conj_mm,1,0.933
no_gap,RQDSGYxg9iGBQ1N,sing,m,sim_sing_m,1,1.377
no_gap,RQDSGYxg9iGBQ1N,sing,m,sim_sing_m,1,0.667
no_gap,RQDSGYxg9iGBQ1N,sing,mm,sim_sing_mm,1,0.875
no_gap,RQDSGYxg9iGBQ1N,sing,mm,sim_sing_mm,1,1.4
no_gap,RQDSGYxg9iGBQ1N,sing,m,sim_sing_m,1,1.21
no_gap,RQDSGYxg9iGBQ1N,sing,m,sim_sing_m,1,1.332
no_gap,RQDSGYxg9iGBQ1N,sing,mm,sim_sing_mm,1,1.086
no_gap,RQDSGYxg9iGBQ1N,sing,mm,sim_sing_mm,1,1.254
no_gap,RQDSGYxg9iGBQ1N,sing,m,sim_sing_m,1,1.393
no_gap,RQDSGYxg9iGBQ1N,sing,m,sim_sing_m,1,1.155
no_gap,RQDSGYxg9iGBQ1N,sing,mm,sim_sing_mm,1,1.135
no_gap,RQDSGYxg9iGBQ1N,sing,mm,sim_sing_mm,1,1.026
no_gap,RQDSGYxg9iGBQ1N,sing,m,sim_sing_m,1,0.851
no_gap,RQDSGYxg9iGBQ1N,sing,m,sim_sing_m,1,1.249
no_gap,RQDSGYxg9iGBQ1N,sing,mm,sim_sing_mm,1,1.031
no_gap,RQDSGYxg9iGBQ1N,sing,mm,sim_sing_mm,1,1.093
no_gap,RqXpoOypYbjTRWl,conj,m,sim_conj_m,1,1.64
no_gap,RqXpoOypYbjTRWl,conj,m,sim_conj_m,1,1.67
no_gap,RqXpoOypYbjTRWl,conj,mm,sim_conj_mm,1,1.617
no_gap,RqXpoOypYbjTRWl,conj,mm,sim_conj_mm,1,1.931
no_gap,RqXpoOypYbjTRWl,conj,m,sim_conj_m,1,0.676
no_gap,RqXpoOypYbjTRWl,conj,m,sim_conj_m,1,0.516
no_gap,RqXpoOypYbjTRWl,conj,mm,sim_conj_mm,1,2.659
no_gap,RqXpoOypYbjTRWl,conj,mm,sim_conj_mm,1,1.122
no_gap,RqXpoOypYbjTRWl,conj,m,sim_conj_m,1,1.062
no_gap,RqXpoOypYbjTRWl,conj,m,sim_conj_m,1,1.314
no_gap,RqXpoOypYbjTRWl,conj,mm,sim_conj_mm,1,2.217
no_gap,RqXpoOypYbjTRWl,conj,mm,sim_conj_mm,1,2.829
no_gap,RqXpoOypYbjTRWl,conj,m,sim_conj_m,1,1.064
no_gap,RqXpoOypYbjTRWl,conj,m,sim_conj_m,1,1.922
no_gap,RqXpoOypYbjTRWl,conj,mm,sim_conj_mm,1,4.289
no_gap,RqXpoOypYbjTRWl,conj,mm,sim_conj_mm,1,2.151
no_gap,RqXpoOypYbjTRWl,sing,m,sim_sing_m,1,1.644
no_gap,RqXpoOypYbjTRWl,sing,m,sim_sing_m,1,2.495
no_gap,RqXpoOypYbjTRWl,sing,mm,sim_sing_mm,1,2.739
no_gap,RqXpoOypYbjTRWl,sing,mm,sim_sing_mm,1,1.489
no_gap,RqXpoOypYbjTRWl,sing,m,sim_sing_m,1,1.545
no_gap,RqXpoOypYbjTRWl,sing,m,sim_sing_m,1,1.859
no_gap,RqXpoOypYbjTRWl,sing,mm,sim_sing_mm,1,1.506
no_gap,RqXpoOypYbjTRWl,sing,mm,sim_sing_mm,1,3.061
no_gap,RqXpoOypYbjTRWl,sing,m,sim_sing_m,1,2.589
no_gap,RqXpoOypYbjTRWl,sing,m,sim_sing_m,1,3.423
no_gap,RqXpoOypYbjTRWl,sing,mm,sim_sing_mm,1,4.074
no_gap,RqXpoOypYbjTRWl,sing,mm,sim_sing_mm,1,1.492
no_gap,RqXpoOypYbjTRWl,sing,m,sim_sing_m,1,2.3
no_gap,RqXpoOypYbjTRWl,sing,m,sim_sing_m,1,3.006
no_gap,RqXpoOypYbjTRWl,sing,mm,sim_sing_mm,1,0.761
no_gap,RqXpoOypYbjTRWl,sing,mm,sim_sing_mm,1,2.077
no_gap,Rrla5wg2eJeofgU,conj,m,sim_conj_m,1,0.604
no_gap,Rrla5wg2eJeofgU,conj,m,sim_conj_m,1,0.429
no_gap,Rrla5wg2eJeofgU,conj,mm,sim_conj_mm,1,0.812
no_gap,Rrla5wg2eJeofgU,conj,mm,sim_conj_mm,1,0.738
no_gap,Rrla5wg2eJeofgU,conj,m,sim_conj_m,1,0.52
no_gap,Rrla5wg2eJeofgU,conj,m,sim_conj_m,1,0.907
no_gap,Rrla5wg2eJeofgU,conj,mm,sim_conj_mm,1,0.567
no_gap,Rrla5wg2eJeofgU,conj,mm,sim_conj_mm,1,1.025
no_gap,Rrla5wg2eJeofgU,conj,m,sim_conj_m,0,0.756
no_gap,Rrla5wg2eJeofgU,conj,m,sim_conj_m,1,1.021
no_gap,Rrla5wg2eJeofgU,conj,mm,sim_conj_mm,1,0.505
no_gap,Rrla5wg2eJeofgU,conj,mm,sim_conj_mm,1,0.986
no_gap,Rrla5wg2eJeofgU,conj,m,sim_conj_m,1,1.065
no_gap,Rrla5wg2eJeofgU,conj,m,sim_conj_m,1,0.445
no_gap,Rrla5wg2eJeofgU,conj,mm,sim_conj_mm,1,0.587
no_gap,Rrla5wg2eJeofgU,conj,mm,sim_conj_mm,1,0.574
no_gap,Rrla5wg2eJeofgU,sing,m,sim_sing_m,1,0.507
no_gap,Rrla5wg2eJeofgU,sing,m,sim_sing_m,1,0.824
no_gap,Rrla5wg2eJeofgU,sing,mm,sim_sing_mm,1,0.69
no_gap,Rrla5wg2eJeofgU,sing,mm,sim_sing_mm,1,0.545
no_gap,Rrla5wg2eJeofgU,sing,m,sim_sing_m,1,0.462
no_gap,Rrla5wg2eJeofgU,sing,m,sim_sing_m,1,0.609
no_gap,Rrla5wg2eJeofgU,sing,mm,sim_sing_mm,1,0.465
no_gap,Rrla5wg2eJeofgU,sing,mm,sim_sing_mm,1,0.542
no_gap,Rrla5wg2eJeofgU,sing,m,sim_sing_m,1,0.412
no_gap,Rrla5wg2eJeofgU,sing,m,sim_sing_m,1,0.829
no_gap,Rrla5wg2eJeofgU,sing,mm,sim_sing_mm,1,0.857
no_gap,Rrla5wg2eJeofgU,sing,mm,sim_sing_mm,1,0.569
no_gap,Rrla5wg2eJeofgU,sing,m,sim_sing_m,1,0.865
no_gap,Rrla5wg2eJeofgU,sing,m,sim_sing_m,1,0.849
no_gap,Rrla5wg2eJeofgU,sing,mm,sim_sing_mm,1,0.783
no_gap,Rrla5wg2eJeofgU,sing,mm,sim_sing_mm,1,0.837
no_gap,RrvojTzRtsDhwWZ,conj,m,sim_conj_m,1,0.407
no_gap,RrvojTzRtsDhwWZ,conj,m,sim_conj_m,1,0.345
no_gap,RrvojTzRtsDhwWZ,conj,mm,sim_conj_mm,1,0.397
no_gap,RrvojTzRtsDhwWZ,conj,mm,sim_conj_mm,1,0.824
no_gap,RrvojTzRtsDhwWZ,conj,m,sim_conj_m,1,0.383
no_gap,RrvojTzRtsDhwWZ,conj,m,sim_conj_m,1,0.718
no_gap,RrvojTzRtsDhwWZ,conj,mm,sim_conj_mm,1,0.376
no_gap,RrvojTzRtsDhwWZ,conj,mm,sim_conj_mm,1,0.443
no_gap,RrvojTzRtsDhwWZ,conj,m,sim_conj_m,1,0.387
no_gap,RrvojTzRtsDhwWZ,conj,m,sim_conj_m,1,0.4
no_gap,RrvojTzRtsDhwWZ,conj,mm,sim_conj_mm,1,0.408
no_gap,RrvojTzRtsDhwWZ,conj,mm,sim_conj_mm,1,0.364
no_gap,RrvojTzRtsDhwWZ,conj,m,sim_conj_m,1,0.469
no_gap,RrvojTzRtsDhwWZ,conj,m,sim_conj_m,1,0.415
no_gap,RrvojTzRtsDhwWZ,conj,mm,sim_conj_mm,1,0.427
no_gap,RrvojTzRtsDhwWZ,conj,mm,sim_conj_mm,1,0.41
no_gap,RrvojTzRtsDhwWZ,sing,m,sim_sing_m,1,0.319
no_gap,RrvojTzRtsDhwWZ,sing,m,sim_sing_m,1,0.457
no_gap,RrvojTzRtsDhwWZ,sing,mm,sim_sing_mm,1,0.426
no_gap,RrvojTzRtsDhwWZ,sing,mm,sim_sing_mm,1,0.498
no_gap,RrvojTzRtsDhwWZ,sing,m,sim_sing_m,1,1.069
no_gap,RrvojTzRtsDhwWZ,sing,m,sim_sing_m,1,0.38
no_gap,RrvojTzRtsDhwWZ,sing,mm,sim_sing_mm,1,0.937
no_gap,RrvojTzRtsDhwWZ,sing,mm,sim_sing_mm,1,0.932
no_gap,RrvojTzRtsDhwWZ,sing,m,sim_sing_m,1,0.51
no_gap,RrvojTzRtsDhwWZ,sing,m,sim_sing_m,1,0.535
no_gap,RrvojTzRtsDhwWZ,sing,mm,sim_sing_mm,1,0.447
no_gap,RrvojTzRtsDhwWZ,sing,mm,sim_sing_mm,1,0.425
no_gap,RrvojTzRtsDhwWZ,sing,m,sim_sing_m,1,0.632
no_gap,RrvojTzRtsDhwWZ,sing,m,sim_sing_m,1,0.351
no_gap,RrvojTzRtsDhwWZ,sing,mm,sim_sing_mm,1,0.568
no_gap,RrvojTzRtsDhwWZ,sing,mm,sim_sing_mm,1,0.505
no_gap,RXqCDwzg1i2Esxj,conj,m,sim_conj_m,1,1.683
no_gap,RXqCDwzg1i2Esxj,conj,m,sim_conj_m,1,0.603
no_gap,RXqCDwzg1i2Esxj,conj,mm,sim_conj_mm,1,1.286
no_gap,RXqCDwzg1i2Esxj,conj,mm,sim_conj_mm,1,0.796
no_gap,RXqCDwzg1i2Esxj,conj,m,sim_conj_m,1,0.612
no_gap,RXqCDwzg1i2Esxj,conj,m,sim_conj_m,1,1.307
no_gap,RXqCDwzg1i2Esxj,conj,mm,sim_conj_mm,1,0.483
no_gap,RXqCDwzg1i2Esxj,conj,mm,sim_conj_mm,1,0.839
no_gap,RXqCDwzg1i2Esxj,conj,m,sim_conj_m,1,0.987
no_gap,RXqCDwzg1i2Esxj,conj,m,sim_conj_m,1,1.268
no_gap,RXqCDwzg1i2Esxj,conj,mm,sim_conj_mm,1,0.965
no_gap,RXqCDwzg1i2Esxj,conj,mm,sim_conj_mm,1,0.709
no_gap,RXqCDwzg1i2Esxj,conj,m,sim_conj_m,1,0.607
no_gap,RXqCDwzg1i2Esxj,conj,m,sim_conj_m,1,1.3
no_gap,RXqCDwzg1i2Esxj,conj,mm,sim_conj_mm,1,1.785
no_gap,RXqCDwzg1i2Esxj,conj,mm,sim_conj_mm,1,1.016
no_gap,RXqCDwzg1i2Esxj,sing,m,sim_sing_m,1,0.632
no_gap,RXqCDwzg1i2Esxj,sing,m,sim_sing_m,1,1.5
no_gap,RXqCDwzg1i2Esxj,sing,mm,sim_sing_mm,1,1.797
no_gap,RXqCDwzg1i2Esxj,sing,mm,sim_sing_mm,1,2.235
no_gap,RXqCDwzg1i2Esxj,sing,m,sim_sing_m,1,2.059
no_gap,RXqCDwzg1i2Esxj,sing,m,sim_sing_m,1,0.941
no_gap,RXqCDwzg1i2Esxj,sing,mm,sim_sing_mm,1,0.638
no_gap,RXqCDwzg1i2Esxj,sing,mm,sim_sing_mm,0,1.063
no_gap,RXqCDwzg1i2Esxj,sing,m,sim_sing_m,1,3.131
no_gap,RXqCDwzg1i2Esxj,sing,m,sim_sing_m,1,0.547
no_gap,RXqCDwzg1i2Esxj,sing,mm,sim_sing_mm,1,2.391
no_gap,RXqCDwzg1i2Esxj,sing,mm,sim_sing_mm,1,1.524
no_gap,RXqCDwzg1i2Esxj,sing,m,sim_sing_m,1,1.289
no_gap,RXqCDwzg1i2Esxj,sing,m,sim_sing_m,1,3.688
no_gap,RXqCDwzg1i2Esxj,sing,mm,sim_sing_mm,0,4.319
no_gap,RXqCDwzg1i2Esxj,sing,mm,sim_sing_mm,1,1.764
no_gap,R0Mv4w5vYeNCTls,conj,m,sim_conj_m,1,0.85
no_gap,R0Mv4w5vYeNCTls,conj,m,sim_conj_m,1,1.13
no_gap,R0Mv4w5vYeNCTls,conj,mm,sim_conj_mm,1,0.642
no_gap,R0Mv4w5vYeNCTls,conj,mm,sim_conj_mm,1,0.641
no_gap,R0Mv4w5vYeNCTls,conj,m,sim_conj_m,1,1.053
no_gap,R0Mv4w5vYeNCTls,conj,m,sim_conj_m,1,0.855
no_gap,R0Mv4w5vYeNCTls,conj,mm,sim_conj_mm,1,0.684
no_gap,R0Mv4w5vYeNCTls,conj,mm,sim_conj_mm,0,0.78
no_gap,R0Mv4w5vYeNCTls,conj,m,sim_conj_m,1,0.716
no_gap,R0Mv4w5vYeNCTls,conj,m,sim_conj_m,1,0.651
no_gap,R0Mv4w5vYeNCTls,conj,mm,sim_conj_mm,1,0.915
no_gap,R0Mv4w5vYeNCTls,conj,mm,sim_conj_mm,1,0.959
no_gap,R0Mv4w5vYeNCTls,conj,m,sim_conj_m,1,0.67
no_gap,R0Mv4w5vYeNCTls,conj,m,sim_conj_m,1,0.498
no_gap,R0Mv4w5vYeNCTls,conj,mm,sim_conj_mm,1,0.694
no_gap,R0Mv4w5vYeNCTls,conj,mm,sim_conj_mm,1,0.765
no_gap,R0Mv4w5vYeNCTls,sing,m,sim_sing_m,1,1.372
no_gap,R0Mv4w5vYeNCTls,sing,m,sim_sing_m,1,1.221
no_gap,R0Mv4w5vYeNCTls,sing,mm,sim_sing_mm,1,0.952
no_gap,R0Mv4w5vYeNCTls,sing,mm,sim_sing_mm,1,0.926
no_gap,R0Mv4w5vYeNCTls,sing,m,sim_sing_m,1,0.866
no_gap,R0Mv4w5vYeNCTls,sing,m,sim_sing_m,1,0.66
no_gap,R0Mv4w5vYeNCTls,sing,mm,sim_sing_mm,1,0.648
no_gap,R0Mv4w5vYeNCTls,sing,mm,sim_sing_mm,1,0.968
no_gap,R0Mv4w5vYeNCTls,sing,m,sim_sing_m,1,0.632
no_gap,R0Mv4w5vYeNCTls,sing,m,sim_sing_m,1,0.77
no_gap,R0Mv4w5vYeNCTls,sing,mm,sim_sing_mm,1,1.056
no_gap,R0Mv4w5vYeNCTls,sing,mm,sim_sing_mm,1,1.391
no_gap,R0Mv4w5vYeNCTls,sing,m,sim_sing_m,1,0.733
no_gap,R0Mv4w5vYeNCTls,sing,m,sim_sing_m,1,0.816
no_gap,R0Mv4w5vYeNCTls,sing,mm,sim_sing_mm,1,0.646
no_gap,R0Mv4w5vYeNCTls,sing,mm,sim_sing_mm,1,0.699
no_gap,R3TwjQv7jVMZAHh,conj,m,sim_conj_m,1,1.247
no_gap,R3TwjQv7jVMZAHh,conj,m,sim_conj_m,1,1.696
no_gap,R3TwjQv7jVMZAHh,conj,mm,sim_conj_mm,1,1.683
no_gap,R3TwjQv7jVMZAHh,conj,mm,sim_conj_mm,1,2.562
no_gap,R3TwjQv7jVMZAHh,conj,m,sim_conj_m,0,1.079
no_gap,R3TwjQv7jVMZAHh,conj,m,sim_conj_m,1,1.813
no_gap,R3TwjQv7jVMZAHh,conj,mm,sim_conj_mm,1,1.069
no_gap,R3TwjQv7jVMZAHh,conj,mm,sim_conj_mm,1,1.63
no_gap,R3TwjQv7jVMZAHh,conj,m,sim_conj_m,1,0.984
no_gap,R3TwjQv7jVMZAHh,conj,m,sim_conj_m,1,2.035
no_gap,R3TwjQv7jVMZAHh,conj,mm,sim_conj_mm,1,1.47
no_gap,R3TwjQv7jVMZAHh,conj,mm,sim_conj_mm,1,0.911
no_gap,R3TwjQv7jVMZAHh,conj,m,sim_conj_m,1,0.829
no_gap,R3TwjQv7jVMZAHh,conj,m,sim_conj_m,1,2.172
no_gap,R3TwjQv7jVMZAHh,conj,mm,sim_conj_mm,1,1.45
no_gap,R3TwjQv7jVMZAHh,conj,mm,sim_conj_mm,1,0.944
no_gap,R3TwjQv7jVMZAHh,sing,m,sim_sing_m,1,1.452
no_gap,R3TwjQv7jVMZAHh,sing,m,sim_sing_m,1,1.772
no_gap,R3TwjQv7jVMZAHh,sing,mm,sim_sing_mm,1,1.433
no_gap,R3TwjQv7jVMZAHh,sing,mm,sim_sing_mm,1,0.872
no_gap,R3TwjQv7jVMZAHh,sing,m,sim_sing_m,1,1.532
no_gap,R3TwjQv7jVMZAHh,sing,m,sim_sing_m,1,2.027
no_gap,R3TwjQv7jVMZAHh,sing,mm,sim_sing_mm,1,1.209
no_gap,R3TwjQv7jVMZAHh,sing,mm,sim_sing_mm,1,1.46
no_gap,R3TwjQv7jVMZAHh,sing,m,sim_sing_m,1,1.447
no_gap,R3TwjQv7jVMZAHh,sing,m,sim_sing_m,1,1.398
no_gap,R3TwjQv7jVMZAHh,sing,mm,sim_sing_mm,1,2.686
no_gap,R3TwjQv7jVMZAHh,sing,mm,sim_sing_mm,1,1.307
no_gap,R3TwjQv7jVMZAHh,sing,m,sim_sing_m,1,1.774
no_gap,R3TwjQv7jVMZAHh,sing,m,sim_sing_m,1,0.878
no_gap,R3TwjQv7jVMZAHh,sing,mm,sim_sing_mm,1,1.508
no_gap,R3TwjQv7jVMZAHh,sing,mm,sim_sing_mm,1,1.41
no_gap,R4HieJfWwUqqVSw,conj,m,sim_conj_m,1,1.742
no_gap,R4HieJfWwUqqVSw,conj,m,sim_conj_m,1,0.882
no_gap,R4HieJfWwUqqVSw,conj,mm,sim_conj_mm,1,1.508
no_gap,R4HieJfWwUqqVSw,conj,mm,sim_conj_mm,1,1.113
no_gap,R4HieJfWwUqqVSw,conj,m,sim_conj_m,1,1.254
no_gap,R4HieJfWwUqqVSw,conj,m,sim_conj_m,1,1.657
no_gap,R4HieJfWwUqqVSw,conj,mm,sim_conj_mm,1,1.002
no_gap,R4HieJfWwUqqVSw,conj,mm,sim_conj_mm,1,6.569
no_gap,R4HieJfWwUqqVSw,conj,m,sim_conj_m,0,1.293
no_gap,R4HieJfWwUqqVSw,conj,m,sim_conj_m,1,0.991
no_gap,R4HieJfWwUqqVSw,conj,mm,sim_conj_mm,1,1.243
no_gap,R4HieJfWwUqqVSw,conj,mm,sim_conj_mm,1,1.329
no_gap,R4HieJfWwUqqVSw,conj,m,sim_conj_m,1,0.841
no_gap,R4HieJfWwUqqVSw,conj,m,sim_conj_m,1,1.307
no_gap,R4HieJfWwUqqVSw,conj,mm,sim_conj_mm,1,1.384
no_gap,R4HieJfWwUqqVSw,conj,mm,sim_conj_mm,1,1.86
no_gap,R4HieJfWwUqqVSw,sing,m,sim_sing_m,1,0.654
no_gap,R4HieJfWwUqqVSw,sing,m,sim_sing_m,1,1.492
no_gap,R4HieJfWwUqqVSw,sing,mm,sim_sing_mm,1,1.06
no_gap,R4HieJfWwUqqVSw,sing,mm,sim_sing_mm,1,1.198
no_gap,R4HieJfWwUqqVSw,sing,m,sim_sing_m,1,1.18
no_gap,R4HieJfWwUqqVSw,sing,m,sim_sing_m,0,0.528
no_gap,R4HieJfWwUqqVSw,sing,mm,sim_sing_mm,1,1.11
no_gap,R4HieJfWwUqqVSw,sing,mm,sim_sing_mm,1,0.648
no_gap,R4HieJfWwUqqVSw,sing,m,sim_sing_m,1,0.969
no_gap,R4HieJfWwUqqVSw,sing,m,sim_sing_m,0,0.448
no_gap,R4HieJfWwUqqVSw,sing,mm,sim_sing_mm,1,1.277
no_gap,R4HieJfWwUqqVSw,sing,mm,sim_sing_mm,0,6.039
no_gap,R4HieJfWwUqqVSw,sing,m,sim_sing_m,1,1.185
no_gap,R4HieJfWwUqqVSw,sing,m,sim_sing_m,0,1.503
no_gap,R4HieJfWwUqqVSw,sing,mm,sim_sing_mm,1,1.128
no_gap,R4HieJfWwUqqVSw,sing,mm,sim_sing_mm,1,0.991
no_gap,R4jTtLg98nGv99c,conj,m,sim_conj_m,1,0.742
no_gap,R4jTtLg98nGv99c,conj,m,sim_conj_m,1,0.651
no_gap,R4jTtLg98nGv99c,conj,mm,sim_conj_mm,1,0.674
no_gap,R4jTtLg98nGv99c,conj,mm,sim_conj_mm,1,0.753
no_gap,R4jTtLg98nGv99c,conj,m,sim_conj_m,1,0.451
no_gap,R4jTtLg98nGv99c,conj,m,sim_conj_m,1,0.635
no_gap,R4jTtLg98nGv99c,conj,mm,sim_conj_mm,1,0.579
no_gap,R4jTtLg98nGv99c,conj,mm,sim_conj_mm,1,0.759
no_gap,R4jTtLg98nGv99c,conj,m,sim_conj_m,1,0.492
no_gap,R4jTtLg98nGv99c,conj,m,sim_conj_m,1,0.94
no_gap,R4jTtLg98nGv99c,conj,mm,sim_conj_mm,1,0.547
no_gap,R4jTtLg98nGv99c,conj,mm,sim_conj_mm,1,0.594
no_gap,R4jTtLg98nGv99c,conj,m,sim_conj_m,1,0.913
no_gap,R4jTtLg98nGv99c,conj,m,sim_conj_m,1,0.527
no_gap,R4jTtLg98nGv99c,conj,mm,sim_conj_mm,1,0.783
no_gap,R4jTtLg98nGv99c,conj,mm,sim_conj_mm,1,0.606
no_gap,R4jTtLg98nGv99c,sing,m,sim_sing_m,1,0.547
no_gap,R4jTtLg98nGv99c,sing,m,sim_sing_m,1,0.451
no_gap,R4jTtLg98nGv99c,sing,mm,sim_sing_mm,1,0.538
no_gap,R4jTtLg98nGv99c,sing,mm,sim_sing_mm,1,0.631
no_gap,R4jTtLg98nGv99c,sing,m,sim_sing_m,1,0.494
no_gap,R4jTtLg98nGv99c,sing,m,sim_sing_m,1,0.598
no_gap,R4jTtLg98nGv99c,sing,mm,sim_sing_mm,1,0.539
no_gap,R4jTtLg98nGv99c,sing,mm,sim_sing_mm,1,0.594
no_gap,R4jTtLg98nGv99c,sing,m,sim_sing_m,1,0.646
no_gap,R4jTtLg98nGv99c,sing,m,sim_sing_m,1,0.444
no_gap,R4jTtLg98nGv99c,sing,mm,sim_sing_mm,1,0.55
no_gap,R4jTtLg98nGv99c,sing,mm,sim_sing_mm,1,0.869
no_gap,R4jTtLg98nGv99c,sing,m,sim_sing_m,1,0.416
no_gap,R4jTtLg98nGv99c,sing,m,sim_sing_m,1,0.699
no_gap,R4jTtLg98nGv99c,sing,mm,sim_sing_mm,1,0.467
no_gap,R4jTtLg98nGv99c,sing,mm,sim_sing_mm,1,0.617
no_gap,R5BzCJwLFrqdpOi,conj,m,sim_conj_m,1,20.332
no_gap,R5BzCJwLFrqdpOi,conj,m,sim_conj_m,1,1.569
no_gap,R5BzCJwLFrqdpOi,conj,mm,sim_conj_mm, , 
no_gap,R5BzCJwLFrqdpOi,conj,mm,sim_conj_mm, , 
no_gap,R5BzCJwLFrqdpOi,conj,m,sim_conj_m, , 
no_gap,R5BzCJwLFrqdpOi,conj,m,sim_conj_m,1,160.84
no_gap,R5BzCJwLFrqdpOi,conj,mm,sim_conj_mm,0,12.393
no_gap,R5BzCJwLFrqdpOi,conj,mm,sim_conj_mm, , 
no_gap,R5BzCJwLFrqdpOi,conj,m,sim_conj_m, , 
no_gap,R5BzCJwLFrqdpOi,conj,m,sim_conj_m,1,49.859
no_gap,R5BzCJwLFrqdpOi,conj,mm,sim_conj_mm, , 
no_gap,R5BzCJwLFrqdpOi,conj,mm,sim_conj_mm, , 
no_gap,R5BzCJwLFrqdpOi,conj,m,sim_conj_m, , 
no_gap,R5BzCJwLFrqdpOi,conj,m,sim_conj_m, , 
no_gap,R5BzCJwLFrqdpOi,conj,mm,sim_conj_mm, , 
no_gap,R5BzCJwLFrqdpOi,conj,mm,sim_conj_mm,0,17.831
no_gap,R5BzCJwLFrqdpOi,sing,m,sim_sing_m,1,28.406
no_gap,R5BzCJwLFrqdpOi,sing,m,sim_sing_m,1,25.403
no_gap,R5BzCJwLFrqdpOi,sing,mm,sim_sing_mm,0,30.142
no_gap,R5BzCJwLFrqdpOi,sing,mm,sim_sing_mm,1,2.602
no_gap,R5BzCJwLFrqdpOi,sing,m,sim_sing_m,0,37.87
no_gap,R5BzCJwLFrqdpOi,sing,m,sim_sing_m,0,49.576
no_gap,R5BzCJwLFrqdpOi,sing,mm,sim_sing_mm,0,23.1
no_gap,R5BzCJwLFrqdpOi,sing,mm,sim_sing_mm,0,8.509
no_gap,R5BzCJwLFrqdpOi,sing,m,sim_sing_m,0,3.234
no_gap,R5BzCJwLFrqdpOi,sing,m,sim_sing_m,1,3.331
no_gap,R5BzCJwLFrqdpOi,sing,mm,sim_sing_mm,0,27.259
no_gap,R5BzCJwLFrqdpOi,sing,mm,sim_sing_mm,0,25.464
no_gap,R5BzCJwLFrqdpOi,sing,m,sim_sing_m,1,3.143
no_gap,R5BzCJwLFrqdpOi,sing,m,sim_sing_m,1,60.616
no_gap,R5BzCJwLFrqdpOi,sing,mm,sim_sing_mm,0,13.514
no_gap,R5BzCJwLFrqdpOi,sing,mm,sim_sing_mm,1,9.406
no_gap,R7EkFokF3zDCAFg,conj,m,sim_conj_m,1,0.691
no_gap,R7EkFokF3zDCAFg,conj,m,sim_conj_m,1,0.624
no_gap,R7EkFokF3zDCAFg,conj,mm,sim_conj_mm,1,0.812
no_gap,R7EkFokF3zDCAFg,conj,mm,sim_conj_mm,1,0.822
no_gap,R7EkFokF3zDCAFg,conj,m,sim_conj_m,1,0.514
no_gap,R7EkFokF3zDCAFg,conj,m,sim_conj_m,1,0.431
no_gap,R7EkFokF3zDCAFg,conj,mm,sim_conj_mm,1,0.708
no_gap,R7EkFokF3zDCAFg,conj,mm,sim_conj_mm,1,0.598
no_gap,R7EkFokF3zDCAFg,conj,m,sim_conj_m,1,0.804
no_gap,R7EkFokF3zDCAFg,conj,m,sim_conj_m,1,0.939
no_gap,R7EkFokF3zDCAFg,conj,mm,sim_conj_mm,1,0.59
no_gap,R7EkFokF3zDCAFg,conj,mm,sim_conj_mm,1,0.913
no_gap,R7EkFokF3zDCAFg,conj,m,sim_conj_m,1,0.538
no_gap,R7EkFokF3zDCAFg,conj,m,sim_conj_m,1,0.593
no_gap,R7EkFokF3zDCAFg,conj,mm,sim_conj_mm,1,0.501
no_gap,R7EkFokF3zDCAFg,conj,mm,sim_conj_mm,1,0.593
no_gap,R7EkFokF3zDCAFg,sing,m,sim_sing_m,1,1.001
no_gap,R7EkFokF3zDCAFg,sing,m,sim_sing_m,1,0.656
no_gap,R7EkFokF3zDCAFg,sing,mm,sim_sing_mm,1,0.605
no_gap,R7EkFokF3zDCAFg,sing,mm,sim_sing_mm,1,0.776
no_gap,R7EkFokF3zDCAFg,sing,m,sim_sing_m,1,0.529
no_gap,R7EkFokF3zDCAFg,sing,m,sim_sing_m,1,0.826
no_gap,R7EkFokF3zDCAFg,sing,mm,sim_sing_mm,1,0.54
no_gap,R7EkFokF3zDCAFg,sing,mm,sim_sing_mm,1,0.663
no_gap,R7EkFokF3zDCAFg,sing,m,sim_sing_m,1,0.62
no_gap,R7EkFokF3zDCAFg,sing,m,sim_sing_m,1,1.148
no_gap,R7EkFokF3zDCAFg,sing,mm,sim_sing_mm,1,0.888
no_gap,R7EkFokF3zDCAFg,sing,mm,sim_sing_mm,0,0.894
no_gap,R7EkFokF3zDCAFg,sing,m,sim_sing_m,1,0.565
no_gap,R7EkFokF3zDCAFg,sing,m,sim_sing_m,1,0.745
no_gap,R7EkFokF3zDCAFg,sing,mm,sim_sing_mm,1,1.007
no_gap,R7EkFokF3zDCAFg,sing,mm,sim_sing_mm,1,1.208
no_gap,R7HkygMlXuzFDss,conj,m,sim_conj_m,1,1.344
no_gap,R7HkygMlXuzFDss,conj,m,sim_conj_m,1,0.628
no_gap,R7HkygMlXuzFDss,conj,mm,sim_conj_mm,1,1.435
no_gap,R7HkygMlXuzFDss,conj,mm,sim_conj_mm,1,1.012
no_gap,R7HkygMlXuzFDss,conj,m,sim_conj_m,1,1.901
no_gap,R7HkygMlXuzFDss,conj,m,sim_conj_m,1,1.872
no_gap,R7HkygMlXuzFDss,conj,mm,sim_conj_mm,1,0.573
no_gap,R7HkygMlXuzFDss,conj,mm,sim_conj_mm,1,1.076
no_gap,R7HkygMlXuzFDss,conj,m,sim_conj_m,1,3.232
no_gap,R7HkygMlXuzFDss,conj,m,sim_conj_m,1,1.884
no_gap,R7HkygMlXuzFDss,conj,mm,sim_conj_mm,1,1.089
no_gap,R7HkygMlXuzFDss,conj,mm,sim_conj_mm,1,0.85
no_gap,R7HkygMlXuzFDss,conj,m,sim_conj_m,1,0.476
no_gap,R7HkygMlXuzFDss,conj,m,sim_conj_m,1,1.566
no_gap,R7HkygMlXuzFDss,conj,mm,sim_conj_mm,1,1.063
no_gap,R7HkygMlXuzFDss,conj,mm,sim_conj_mm,1,1.645
no_gap,R7HkygMlXuzFDss,sing,m,sim_sing_m,1,0.481
no_gap,R7HkygMlXuzFDss,sing,m,sim_sing_m,1,2.601
no_gap,R7HkygMlXuzFDss,sing,mm,sim_sing_mm,1,1.227
no_gap,R7HkygMlXuzFDss,sing,mm,sim_sing_mm,1,1.646
no_gap,R7HkygMlXuzFDss,sing,m,sim_sing_m,0,1.471
no_gap,R7HkygMlXuzFDss,sing,m,sim_sing_m,1,0.505
no_gap,R7HkygMlXuzFDss,sing,mm,sim_sing_mm,1,2.29
no_gap,R7HkygMlXuzFDss,sing,mm,sim_sing_mm,1,1.251
no_gap,R7HkygMlXuzFDss,sing,m,sim_sing_m,0,3.487
no_gap,R7HkygMlXuzFDss,sing,m,sim_sing_m,1,0.649
no_gap,R7HkygMlXuzFDss,sing,mm,sim_sing_mm,1,2.153
no_gap,R7HkygMlXuzFDss,sing,mm,sim_sing_mm,1,1.309
no_gap,R7HkygMlXuzFDss,sing,m,sim_sing_m,1,1.112
no_gap,R7HkygMlXuzFDss,sing,m,sim_sing_m,1,1.423
no_gap,R7HkygMlXuzFDss,sing,mm,sim_sing_mm,1,2.138
no_gap,R7HkygMlXuzFDss,sing,mm,sim_sing_mm,1,0.641
no_gap,R8B8ByTcmPbYYBi,conj,m,sim_conj_m,1,0.963
no_gap,R8B8ByTcmPbYYBi,conj,m,sim_conj_m,1,0.997
no_gap,R8B8ByTcmPbYYBi,conj,mm,sim_conj_mm,1,0.858
no_gap,R8B8ByTcmPbYYBi,conj,mm,sim_conj_mm,1,1.149
no_gap,R8B8ByTcmPbYYBi,conj,m,sim_conj_m,1,0.509
no_gap,R8B8ByTcmPbYYBi,conj,m,sim_conj_m,1,0.807
no_gap,R8B8ByTcmPbYYBi,conj,mm,sim_conj_mm,1,1.019
no_gap,R8B8ByTcmPbYYBi,conj,mm,sim_conj_mm,1,0.616
no_gap,R8B8ByTcmPbYYBi,conj,m,sim_conj_m,1,0.663
no_gap,R8B8ByTcmPbYYBi,conj,m,sim_conj_m,1,1.326
no_gap,R8B8ByTcmPbYYBi,conj,mm,sim_conj_mm,1,0.996
no_gap,R8B8ByTcmPbYYBi,conj,mm,sim_conj_mm,1,1.355
no_gap,R8B8ByTcmPbYYBi,conj,m,sim_conj_m,1,0.966
no_gap,R8B8ByTcmPbYYBi,conj,m,sim_conj_m,1,0.636
no_gap,R8B8ByTcmPbYYBi,conj,mm,sim_conj_mm,1,0.749
no_gap,R8B8ByTcmPbYYBi,conj,mm,sim_conj_mm,1,0.826
no_gap,R8B8ByTcmPbYYBi,sing,m,sim_sing_m,1,0.889
no_gap,R8B8ByTcmPbYYBi,sing,m,sim_sing_m,1,0.943
no_gap,R8B8ByTcmPbYYBi,sing,mm,sim_sing_mm,1,1.109
no_gap,R8B8ByTcmPbYYBi,sing,mm,sim_sing_mm,1,0.94
no_gap,R8B8ByTcmPbYYBi,sing,m,sim_sing_m,1,0.578
no_gap,R8B8ByTcmPbYYBi,sing,m,sim_sing_m,1,0.578
no_gap,R8B8ByTcmPbYYBi,sing,mm,sim_sing_mm,1,1.511
no_gap,R8B8ByTcmPbYYBi,sing,mm,sim_sing_mm,1,0.653
no_gap,R8B8ByTcmPbYYBi,sing,m,sim_sing_m,1,0.735
no_gap,R8B8ByTcmPbYYBi,sing,m,sim_sing_m,1,1.312
no_gap,R8B8ByTcmPbYYBi,sing,mm,sim_sing_mm,1,0.711
no_gap,R8B8ByTcmPbYYBi,sing,mm,sim_sing_mm,1,0.723
no_gap,R8B8ByTcmPbYYBi,sing,m,sim_sing_m,1,0.675
no_gap,R8B8ByTcmPbYYBi,sing,m,sim_sing_m,1,0.558
no_gap,R8B8ByTcmPbYYBi,sing,mm,sim_sing_mm,1,0.532
no_gap,R8B8ByTcmPbYYBi,sing,mm,sim_sing_mm,1,0.628
no_gap,R90a4seCfd02VPe,conj,m,sim_conj_m,1,0.988
no_gap,R90a4seCfd02VPe,conj,m,sim_conj_m,1,1.935
no_gap,R90a4seCfd02VPe,conj,mm,sim_conj_mm,1,0.615
no_gap,R90a4seCfd02VPe,conj,mm,sim_conj_mm,1,0.738
no_gap,R90a4seCfd02VPe,conj,m,sim_conj_m,1,1.11
no_gap,R90a4seCfd02VPe,conj,m,sim_conj_m,1,0.651
no_gap,R90a4seCfd02VPe,conj,mm,sim_conj_mm,1,1.446
no_gap,R90a4seCfd02VPe,conj,mm,sim_conj_mm,1,0.795
no_gap,R90a4seCfd02VPe,conj,m,sim_conj_m,1,0.637
no_gap,R90a4seCfd02VPe,conj,m,sim_conj_m,1,0.524
no_gap,R90a4seCfd02VPe,conj,mm,sim_conj_mm,1,0.616
no_gap,R90a4seCfd02VPe,conj,mm,sim_conj_mm,1,0.588
no_gap,R90a4seCfd02VPe,conj,m,sim_conj_m,1,0.649
no_gap,R90a4seCfd02VPe,conj,m,sim_conj_m,1,0.456
no_gap,R90a4seCfd02VPe,conj,mm,sim_conj_mm,1,0.564
no_gap,R90a4seCfd02VPe,conj,mm,sim_conj_mm,1,0.574
no_gap,R90a4seCfd02VPe,sing,m,sim_sing_m,1,0.682
no_gap,R90a4seCfd02VPe,sing,m,sim_sing_m,1,0.677
no_gap,R90a4seCfd02VPe,sing,mm,sim_sing_mm,1,0.785
no_gap,R90a4seCfd02VPe,sing,mm,sim_sing_mm,1,1.485
no_gap,R90a4seCfd02VPe,sing,m,sim_sing_m,1,1.229
no_gap,R90a4seCfd02VPe,sing,m,sim_sing_m,1,0.705
no_gap,R90a4seCfd02VPe,sing,mm,sim_sing_mm,1,0.659
no_gap,R90a4seCfd02VPe,sing,mm,sim_sing_mm,1,0.944
no_gap,R90a4seCfd02VPe,sing,m,sim_sing_m,1,0.45
no_gap,R90a4seCfd02VPe,sing,m,sim_sing_m,1,0.605
no_gap,R90a4seCfd02VPe,sing,mm,sim_sing_mm,1,0.761
no_gap,R90a4seCfd02VPe,sing,mm,sim_sing_mm,1,0.54
no_gap,R90a4seCfd02VPe,sing,m,sim_sing_m,1,1.513
no_gap,R90a4seCfd02VPe,sing,m,sim_sing_m,1,0.812
no_gap,R90a4seCfd02VPe,sing,mm,sim_sing_mm,1,1.154
no_gap,R90a4seCfd02VPe,sing,mm,sim_sing_mm,1,0.652
no_gap,R9buJYsXisup2Mb,conj,m,sim_conj_m,1,0.948
no_gap,R9buJYsXisup2Mb,conj,m,sim_conj_m,1,0.898
no_gap,R9buJYsXisup2Mb,conj,mm,sim_conj_mm,1,3.259
no_gap,R9buJYsXisup2Mb,conj,mm,sim_conj_mm,0,1.2
no_gap,R9buJYsXisup2Mb,conj,m,sim_conj_m,1,0.815
no_gap,R9buJYsXisup2Mb,conj,m,sim_conj_m,1,1.691
no_gap,R9buJYsXisup2Mb,conj,mm,sim_conj_mm,1,2.448
no_gap,R9buJYsXisup2Mb,conj,mm,sim_conj_mm,1,7.085
no_gap,R9buJYsXisup2Mb,conj,m,sim_conj_m,1,0.866
no_gap,R9buJYsXisup2Mb,conj,m,sim_conj_m,1,3.711
no_gap,R9buJYsXisup2Mb,conj,mm,sim_conj_mm,1,2.458
no_gap,R9buJYsXisup2Mb,conj,mm,sim_conj_mm,1,2.498
no_gap,R9buJYsXisup2Mb,conj,m,sim_conj_m,1,1.734
no_gap,R9buJYsXisup2Mb,conj,m,sim_conj_m,1,1.493
no_gap,R9buJYsXisup2Mb,conj,mm,sim_conj_mm,1,1.65
no_gap,R9buJYsXisup2Mb,conj,mm,sim_conj_mm,1,1.173
no_gap,R9buJYsXisup2Mb,sing,m,sim_sing_m,1,2.082
