task,PPnr,conjunction_single,match_mismatch,trial,acc_conj,RT_conj,acc_sing,RT_sing
no_gap,R_08x3yfNtCFtgBYl,conj,m,sim_conj_gd_m_1,1,5.812,1,1.589
no_gap,R_08x3yfNtCFtgBYl,conj,m,sim_conj_gd_m_2,1,1.521,1,2.234
no_gap,R_08x3yfNtCFtgBYl,conj,m,sim_conj_gs_m_1,1,3.264,1,1.546
no_gap,R_08x3yfNtCFtgBYl,conj,m,sim_conj_gs_m_2,1,1.538,1,1.557
no_gap,R_08x3yfNtCFtgBYl,conj,m,sim_conj_rd_m_1,1,4.61,1,1.673
no_gap,R_08x3yfNtCFtgBYl,conj,m,sim_conj_rd_m_2,1,2.024,1,1.649
no_gap,R_08x3yfNtCFtgBYl,conj,m,sim_conj_rs_m_1,1,2.727,1,1.629
no_gap,R_08x3yfNtCFtgBYl,conj,m,sim_conj_rs_m_2,1,1.555,1,2.528
no_gap,R_08x3yfNtCFtgBYl,conj,mm,sim_conj_gd_mm_1,1,2.504,1,2.42
no_gap,R_08x3yfNtCFtgBYl,conj,mm,sim_conj_gd_mm_2,0,1.477,1,4.708
no_gap,R_08x3yfNtCFtgBYl,conj,mm,sim_conj_gs_mm_1,1,3.424,1,1.689
no_gap,R_08x3yfNtCFtgBYl,conj,mm,sim_conj_gs_mm_2,1,4.29,1,1.788
no_gap,R_08x3yfNtCFtgBYl,conj,mm,sim_conj_rd_mm_1,1,2.031,1,3.509
no_gap,R_08x3yfNtCFtgBYl,conj,mm,sim_conj_rd_mm_2,1,1.553,1,2.075
no_gap,R_08x3yfNtCFtgBYl,conj,mm,sim_conj_rs_mm_1,1,1.715,1,2.34
no_gap,R_08x3yfNtCFtgBYl,conj,mm,sim_conj_rs_mm_2,1,1.563,1,1.529
no_gap,R_0OmSAzFURsT3hND,conj,m,sim_conj_gd_m_1,1,0.984,1,0.946
no_gap,R_0OmSAzFURsT3hND,conj,m,sim_conj_gd_m_2,1,0.518,1,1.181
no_gap,R_0OmSAzFURsT3hND,conj,m,sim_conj_gs_m_1,1,0.891,1,0.818
no_gap,R_0OmSAzFURsT3hND,conj,m,sim_conj_gs_m_2,1,0.482,1,0.857
no_gap,R_0OmSAzFURsT3hND,conj,m,sim_conj_rd_m_1,1,0.814,1,0.752
no_gap,R_0OmSAzFURsT3hND,conj,m,sim_conj_rd_m_2,1,0.749,1,1.221
no_gap,R_0OmSAzFURsT3hND,conj,m,sim_conj_rs_m_1,1,0.783,1,1.472
no_gap,R_0OmSAzFURsT3hND,conj,m,sim_conj_rs_m_2,1,0.597,1,1.039
no_gap,R_0OmSAzFURsT3hND,conj,mm,sim_conj_gd_mm_1,1,0.559,1,1.695
no_gap,R_0OmSAzFURsT3hND,conj,mm,sim_conj_gd_mm_2,0,0.665,1,1.58
no_gap,R_0OmSAzFURsT3hND,conj,mm,sim_conj_gs_mm_1,1,1.159,1,1.908
no_gap,R_0OmSAzFURsT3hND,conj,mm,sim_conj_gs_mm_2,1,0.763,1,0.952
no_gap,R_0OmSAzFURsT3hND,conj,mm,sim_conj_rd_mm_1,1,0.749,1,0.962
no_gap,R_0OmSAzFURsT3hND,conj,mm,sim_conj_rd_mm_2,1,0.854,1,1.261
no_gap,R_0OmSAzFURsT3hND,conj,mm,sim_conj_rs_mm_1,1,0.535,1,0.892
no_gap,R_0OmSAzFURsT3hND,conj,mm,sim_conj_rs_mm_2,1,0.538,1,1.132
no_gap,R_10ZPMCCzcV8FG6A,conj,m,sim_conj_gd_m_1,1,1.408,1,0.914
no_gap,R_10ZPMCCzcV8FG6A,conj,m,sim_conj_gd_m_2,1,0.947,1,1.326
no_gap,R_10ZPMCCzcV8FG6A,conj,m,sim_conj_gs_m_1,1,0.988,1,0.971
no_gap,R_10ZPMCCzcV8FG6A,conj,m,sim_conj_gs_m_2,1,1.242,1,1.527
no_gap,R_10ZPMCCzcV8FG6A,conj,m,sim_conj_rd_m_1,1,1.214,1,1.046
no_gap,R_10ZPMCCzcV8FG6A,conj,m,sim_conj_rd_m_2,1,1.237,1,1.631
no_gap,R_10ZPMCCzcV8FG6A,conj,m,sim_conj_rs_m_1,1,1.332,1,1.181
no_gap,R_10ZPMCCzcV8FG6A,conj,m,sim_conj_rs_m_2,1,1.123,1,1.064
no_gap,R_10ZPMCCzcV8FG6A,conj,mm,sim_conj_gd_mm_1,1,0.987,1,0.648
no_gap,R_10ZPMCCzcV8FG6A,conj,mm,sim_conj_gd_mm_2,1,0.825,1,0.732
no_gap,R_10ZPMCCzcV8FG6A,conj,mm,sim_conj_gs_mm_1,1,0.832,1,0.744
no_gap,R_10ZPMCCzcV8FG6A,conj,mm,sim_conj_gs_mm_2,1,0.714,1,0.635
no_gap,R_10ZPMCCzcV8FG6A,conj,mm,sim_conj_rd_mm_1,1,0.925,1,0.93
no_gap,R_10ZPMCCzcV8FG6A,conj,mm,sim_conj_rd_mm_2,1,0.71,1,0.883
no_gap,R_10ZPMCCzcV8FG6A,conj,mm,sim_conj_rs_mm_1,1,0.75,1,0.583
no_gap,R_10ZPMCCzcV8FG6A,conj,mm,sim_conj_rs_mm_2,1,0.602,1,0.77
gap,R_1240oKwSUYFSJUY,conj,m,sim_conj_gd_m_1,1,1.174,1,0.357
gap,R_1240oKwSUYFSJUY,conj,m,sim_conj_gd_m_2,1,0.365,1,0.365
gap,R_1240oKwSUYFSJUY,conj,m,sim_conj_gs_m_1,1,0.352,1,0.781
gap,R_1240oKwSUYFSJUY,conj,m,sim_conj_gs_m_2,1,0.38,1,0.351
gap,R_1240oKwSUYFSJUY,conj,m,sim_conj_rd_m_1,1,0.47,1,0.939
gap,R_1240oKwSUYFSJUY,conj,m,sim_conj_rd_m_2,1,0.476,1,0.409
gap,R_1240oKwSUYFSJUY,conj,m,sim_conj_rs_m_1,1,0.4,1,0.587
gap,R_1240oKwSUYFSJUY,conj,m,sim_conj_rs_m_2,1,0.409,1,0.398
gap,R_1240oKwSUYFSJUY,conj,mm,sim_conj_gd_mm_1,1,0.621,1,0.732
gap,R_1240oKwSUYFSJUY,conj,mm,sim_conj_gd_mm_2,1,1.078,1,0.524
gap,R_1240oKwSUYFSJUY,conj,mm,sim_conj_gs_mm_1,1,0.517,1,1.196
gap,R_1240oKwSUYFSJUY,conj,mm,sim_conj_gs_mm_2,1,0.769,1,1.414
gap,R_1240oKwSUYFSJUY,conj,mm,sim_conj_rd_mm_1,1,0.669,1,0.833
gap,R_1240oKwSUYFSJUY,conj,mm,sim_conj_rd_mm_2,1,0.419,1,0.48
gap,R_1240oKwSUYFSJUY,conj,mm,sim_conj_rs_mm_1,1,0.455,1,0.689
gap,R_1240oKwSUYFSJUY,conj,mm,sim_conj_rs_mm_2,1,0.463,1,0.751
gap,R_125qGAPsEKNgCik,conj,m,sim_conj_gd_m_1,1,0.817,1,0.637
gap,R_125qGAPsEKNgCik,conj,m,sim_conj_gd_m_2,1,0.812,1,0.615
gap,R_125qGAPsEKNgCik,conj,m,sim_conj_gs_m_1,1,0.924,1,0.568
gap,R_125qGAPsEKNgCik,conj,m,sim_conj_gs_m_2,1,0.662,1,1.134
gap,R_125qGAPsEKNgCik,conj,m,sim_conj_rd_m_1,1,1.367,1,1.659
gap,R_125qGAPsEKNgCik,conj,m,sim_conj_rd_m_2,0,0.845,1,1.009
gap,R_125qGAPsEKNgCik,conj,m,sim_conj_rs_m_1,1,0.779,1,0.726
gap,R_125qGAPsEKNgCik,conj,m,sim_conj_rs_m_2,1,0.488,1,0.934
gap,R_125qGAPsEKNgCik,conj,mm,sim_conj_gd_mm_1,1,0.426,1,1.138
gap,R_125qGAPsEKNgCik,conj,mm,sim_conj_gd_mm_2,1,1.357,1,1.293
gap,R_125qGAPsEKNgCik,conj,mm,sim_conj_gs_mm_1,1,0.619,0,1.719
gap,R_125qGAPsEKNgCik,conj,mm,sim_conj_gs_mm_2,0,1.203,1,1.291
gap,R_125qGAPsEKNgCik,conj,mm,sim_conj_rd_mm_1,1,0.674,1,2.962
gap,R_125qGAPsEKNgCik,conj,mm,sim_conj_rd_mm_2,1,0.745,1,4.282
gap,R_125qGAPsEKNgCik,conj,mm,sim_conj_rs_mm_1,1,3.639,1,1.113
gap,R_125qGAPsEKNgCik,conj,mm,sim_conj_rs_mm_2,1,1.191,0,1.769
no_gap,R_12s68Ligswec1t3,conj,m,sim_conj_gd_m_1,1,0.548,1,0.459
no_gap,R_12s68Ligswec1t3,conj,m,sim_conj_gd_m_2,0,0.798,1,1.04
no_gap,R_12s68Ligswec1t3,conj,m,sim_conj_gs_m_1,1,0.502,1,0.43
no_gap,R_12s68Ligswec1t3,conj,m,sim_conj_gs_m_2,1,0.553,1,0.701
no_gap,R_12s68Ligswec1t3,conj,m,sim_conj_rd_m_1,1,0.528,1,0.565
no_gap,R_12s68Ligswec1t3,conj,m,sim_conj_rd_m_2,1,0.57,1,0.86
no_gap,R_12s68Ligswec1t3,conj,m,sim_conj_rs_m_1,1,0.442,1,0.521
no_gap,R_12s68Ligswec1t3,conj,m,sim_conj_rs_m_2,1,0.503,1,0.44
no_gap,R_12s68Ligswec1t3,conj,mm,sim_conj_gd_mm_1,1,0.499,1,0.481
no_gap,R_12s68Ligswec1t3,conj,mm,sim_conj_gd_mm_2,1,0.534,1,0.618
no_gap,R_12s68Ligswec1t3,conj,mm,sim_conj_gs_mm_1,1,0.548,1,0.436
no_gap,R_12s68Ligswec1t3,conj,mm,sim_conj_gs_mm_2,1,0.502,1,0.58
no_gap,R_12s68Ligswec1t3,conj,mm,sim_conj_rd_mm_1,1,0.643,1,0.54
no_gap,R_12s68Ligswec1t3,conj,mm,sim_conj_rd_mm_2,1,0.515,1,0.585
no_gap,R_12s68Ligswec1t3,conj,mm,sim_conj_rs_mm_1,1,0.463,1,0.427
no_gap,R_12s68Ligswec1t3,conj,mm,sim_conj_rs_mm_2,1,0.633,1,0.74
no_gap,R_1BPAkPhD282eIwa,conj,m,sim_conj_gd_m_1,1,0.778,1,1.067
no_gap,R_1BPAkPhD282eIwa,conj,m,sim_conj_gd_m_2,1,1.143,1,1.515
no_gap,R_1BPAkPhD282eIwa,conj,m,sim_conj_gs_m_1,1,0.648,1,1.106
no_gap,R_1BPAkPhD282eIwa,conj,m,sim_conj_gs_m_2,1,0.822,1,0.704
no_gap,R_1BPAkPhD282eIwa,conj,m,sim_conj_rd_m_1,1,0.799,1,0.647
no_gap,R_1BPAkPhD282eIwa,conj,m,sim_conj_rd_m_2,1,0.809,1,0.904
no_gap,R_1BPAkPhD282eIwa,conj,m,sim_conj_rs_m_1,1,1.178,1,1.072
no_gap,R_1BPAkPhD282eIwa,conj,m,sim_conj_rs_m_2,1,0.635,1,0.602
no_gap,R_1BPAkPhD282eIwa,conj,mm,sim_conj_gd_mm_1,1,0.683,1,1.031
no_gap,R_1BPAkPhD282eIwa,conj,mm,sim_conj_gd_mm_2,1,1.137,1,0.838
no_gap,R_1BPAkPhD282eIwa,conj,mm,sim_conj_gs_mm_1,1,0.584,1,1.942
no_gap,R_1BPAkPhD282eIwa,conj,mm,sim_conj_gs_mm_2,1,0.871,1,0.563
no_gap,R_1BPAkPhD282eIwa,conj,mm,sim_conj_rd_mm_1,1,0.714,1,0.786
no_gap,R_1BPAkPhD282eIwa,conj,mm,sim_conj_rd_mm_2,1,0.998,1,0.76
no_gap,R_1BPAkPhD282eIwa,conj,mm,sim_conj_rs_mm_1,1,0.785,1,0.718
no_gap,R_1BPAkPhD282eIwa,conj,mm,sim_conj_rs_mm_2,1,0.881,1,0.693
gap,R_1BYsxPc3DVzRRdc,conj,m,sim_conj_gd_m_1,1,1.768,1,1.277
gap,R_1BYsxPc3DVzRRdc,conj,m,sim_conj_gd_m_2,1,1.17,0,0.98
gap,R_1BYsxPc3DVzRRdc,conj,m,sim_conj_gs_m_1,1,1.015,1,1.133
gap,R_1BYsxPc3DVzRRdc,conj,m,sim_conj_gs_m_2,1,1.272,1,1.124
gap,R_1BYsxPc3DVzRRdc,conj,m,sim_conj_rd_m_1,1,1.537,1,1.665
gap,R_1BYsxPc3DVzRRdc,conj,m,sim_conj_rd_m_2,1,0.628,0,0.891
gap,R_1BYsxPc3DVzRRdc,conj,m,sim_conj_rs_m_1,1,1.446,1,0.985
gap,R_1BYsxPc3DVzRRdc,conj,m,sim_conj_rs_m_2,1,0.599,1,0.996
gap,R_1BYsxPc3DVzRRdc,conj,mm,sim_conj_gd_mm_1,1,0.794,1,1.587
gap,R_1BYsxPc3DVzRRdc,conj,mm,sim_conj_gd_mm_2,1,1.276,1,1.045
gap,R_1BYsxPc3DVzRRdc,conj,mm,sim_conj_gs_mm_1,1,1.431,1,0.73
gap,R_1BYsxPc3DVzRRdc,conj,mm,sim_conj_gs_mm_2,1,0.755,1,1.527
gap,R_1BYsxPc3DVzRRdc,conj,mm,sim_conj_rd_mm_1,1,1.127,1,1.525
gap,R_1BYsxPc3DVzRRdc,conj,mm,sim_conj_rd_mm_2,1,1.453,1,0.715
gap,R_1BYsxPc3DVzRRdc,conj,mm,sim_conj_rs_mm_1,1,1.252,0,1.035
gap,R_1BYsxPc3DVzRRdc,conj,mm,sim_conj_rs_mm_2,1,1.263,1,1.416
gap,R_1C4075atnBURXV9,conj,m,sim_conj_gd_m_1,1,0.551,1,0.722
gap,R_1C4075atnBURXV9,conj,m,sim_conj_gd_m_2,1,0.547,1,0.81
gap,R_1C4075atnBURXV9,conj,m,sim_conj_gs_m_1,1,0.503,1,0.463
gap,R_1C4075atnBURXV9,conj,m,sim_conj_gs_m_2,1,0.51,1,0.541
gap,R_1C4075atnBURXV9,conj,m,sim_conj_rd_m_1,1,0.827,1,0.774
gap,R_1C4075atnBURXV9,conj,m,sim_conj_rd_m_2,1,0.692,1,0.723
gap,R_1C4075atnBURXV9,conj,m,sim_conj_rs_m_1,1,0.481,1,0.586
gap,R_1C4075atnBURXV9,conj,m,sim_conj_rs_m_2,1,0.623,1,0.366
gap,R_1C4075atnBURXV9,conj,mm,sim_conj_gd_mm_1,1,0.78,1,0.573
gap,R_1C4075atnBURXV9,conj,mm,sim_conj_gd_mm_2,1,0.628,1,0.761
gap,R_1C4075atnBURXV9,conj,mm,sim_conj_gs_mm_1,1,0.53,1,0.53
gap,R_1C4075atnBURXV9,conj,mm,sim_conj_gs_mm_2,0,1.062,1,0.478
gap,R_1C4075atnBURXV9,conj,mm,sim_conj_rd_mm_1,1,0.867,1,0.508
gap,R_1C4075atnBURXV9,conj,mm,sim_conj_rd_mm_2,1,0.636,1,0.654
gap,R_1C4075atnBURXV9,conj,mm,sim_conj_rs_mm_1,1,0.926,1,0.491
gap,R_1C4075atnBURXV9,conj,mm,sim_conj_rs_mm_2,1,1.539,1,0.571
gap,R_1Ca7oDDfGUuqpD2,conj,m,sim_conj_gd_m_1,1,0.962,1,0.91
gap,R_1Ca7oDDfGUuqpD2,conj,m,sim_conj_gd_m_2,0,0.8,1,1.094
gap,R_1Ca7oDDfGUuqpD2,conj,m,sim_conj_gs_m_1,1,1.348,1,0.81
gap,R_1Ca7oDDfGUuqpD2,conj,m,sim_conj_gs_m_2,1,0.759,1,0.843
gap,R_1Ca7oDDfGUuqpD2,conj,m,sim_conj_rd_m_1,1,0.624,1,0.39
gap,R_1Ca7oDDfGUuqpD2,conj,m,sim_conj_rd_m_2,1,0.691,1,0.843
gap,R_1Ca7oDDfGUuqpD2,conj,m,sim_conj_rs_m_1,1,1.135,1,0.386
gap,R_1Ca7oDDfGUuqpD2,conj,m,sim_conj_rs_m_2,1,0.882,0,0.731
gap,R_1Ca7oDDfGUuqpD2,conj,mm,sim_conj_gd_mm_1,1,1.206,1,0.75
gap,R_1Ca7oDDfGUuqpD2,conj,mm,sim_conj_gd_mm_2,1,0.773,1,2.125
gap,R_1Ca7oDDfGUuqpD2,conj,mm,sim_conj_gs_mm_1,1,1.44,0,0.658
gap,R_1Ca7oDDfGUuqpD2,conj,mm,sim_conj_gs_mm_2,1,0.913,1,2.133
gap,R_1Ca7oDDfGUuqpD2,conj,mm,sim_conj_rd_mm_1,1,0.844,1,1.215
gap,R_1Ca7oDDfGUuqpD2,conj,mm,sim_conj_rd_mm_2,1,0.604,1,1.633
gap,R_1Ca7oDDfGUuqpD2,conj,mm,sim_conj_rs_mm_1,1,0.764,1,0.59
gap,R_1Ca7oDDfGUuqpD2,conj,mm,sim_conj_rs_mm_2,1,0.639,1,0.571
no_gap,R_1CDQa7qsN9RNzFH,conj,m,sim_conj_gd_m_1,1,0.643,1,1.868
no_gap,R_1CDQa7qsN9RNzFH,conj,m,sim_conj_gd_m_2,1,0.71,1,0.806
no_gap,R_1CDQa7qsN9RNzFH,conj,m,sim_conj_gs_m_1,1,1.037,1,1.506
no_gap,R_1CDQa7qsN9RNzFH,conj,m,sim_conj_gs_m_2,1,0.784,1,1.115
no_gap,R_1CDQa7qsN9RNzFH,conj,m,sim_conj_rd_m_1,1,1.072,1,1.316
no_gap,R_1CDQa7qsN9RNzFH,conj,m,sim_conj_rd_m_2,1,1.697,1,0.798
no_gap,R_1CDQa7qsN9RNzFH,conj,m,sim_conj_rs_m_1,1,0.571,1,1.643
no_gap,R_1CDQa7qsN9RNzFH,conj,m,sim_conj_rs_m_2,1,2.623,1,1.288
no_gap,R_1CDQa7qsN9RNzFH,conj,mm,sim_conj_gd_mm_1,1,1.316,1,1.598
no_gap,R_1CDQa7qsN9RNzFH,conj,mm,sim_conj_gd_mm_2,1,0.748,1,1.399
no_gap,R_1CDQa7qsN9RNzFH,conj,mm,sim_conj_gs_mm_1,1,1.321,1,0.995
no_gap,R_1CDQa7qsN9RNzFH,conj,mm,sim_conj_gs_mm_2,1,0.782,1,1.227
no_gap,R_1CDQa7qsN9RNzFH,conj,mm,sim_conj_rd_mm_1,1,1.371,1,1.947
no_gap,R_1CDQa7qsN9RNzFH,conj,mm,sim_conj_rd_mm_2,1,1.524,1,0.7
no_gap,R_1CDQa7qsN9RNzFH,conj,mm,sim_conj_rs_mm_1,1,0.776,1,1.692
no_gap,R_1CDQa7qsN9RNzFH,conj,mm,sim_conj_rs_mm_2,1,1.143,1,0.855
no_gap,R_1CJcSTbRoTUCqgI,conj,m,sim_conj_gd_m_1,1,1.094,0,1.73
no_gap,R_1CJcSTbRoTUCqgI,conj,m,sim_conj_gd_m_2,1,0.624,1,1.047
no_gap,R_1CJcSTbRoTUCqgI,conj,m,sim_conj_gs_m_1, , ,1,0.937
no_gap,R_1CJcSTbRoTUCqgI,conj,m,sim_conj_gs_m_2,1,1.172,1,0.669
no_gap,R_1CJcSTbRoTUCqgI,conj,m,sim_conj_rd_m_1,1,0.917,1,1.949
no_gap,R_1CJcSTbRoTUCqgI,conj,m,sim_conj_rd_m_2,1,0.606,1,0.704
no_gap,R_1CJcSTbRoTUCqgI,conj,m,sim_conj_rs_m_1,1,1.138,1,0.725
no_gap,R_1CJcSTbRoTUCqgI,conj,m,sim_conj_rs_m_2,1,1.315,1,1.035
no_gap,R_1CJcSTbRoTUCqgI,conj,mm,sim_conj_gd_mm_1,1,0.891,1,1.658
no_gap,R_1CJcSTbRoTUCqgI,conj,mm,sim_conj_gd_mm_2,1,0.933,1,1.298
no_gap,R_1CJcSTbRoTUCqgI,conj,mm,sim_conj_gs_mm_1,1,0.876,1,1.263
no_gap,R_1CJcSTbRoTUCqgI,conj,mm,sim_conj_gs_mm_2,1,0.926,1,0.828
no_gap,R_1CJcSTbRoTUCqgI,conj,mm,sim_conj_rd_mm_1,1,0.95,1,1.667
no_gap,R_1CJcSTbRoTUCqgI,conj,mm,sim_conj_rd_mm_2,1,1.867,1,0.824
no_gap,R_1CJcSTbRoTUCqgI,conj,mm,sim_conj_rs_mm_1,1,1.566,0,3.229
no_gap,R_1CJcSTbRoTUCqgI,conj,mm,sim_conj_rs_mm_2,1,0.916,1,1.428
no_gap,R_1cUmxE0nB0eQ5tx,conj,m,sim_conj_gd_m_1,1,0.751,1,1.136
no_gap,R_1cUmxE0nB0eQ5tx,conj,m,sim_conj_gd_m_2,1,0.812,1,0.675
no_gap,R_1cUmxE0nB0eQ5tx,conj,m,sim_conj_gs_m_1,1,1.413,1,1.364
no_gap,R_1cUmxE0nB0eQ5tx,conj,m,sim_conj_gs_m_2,1,0.584,1,0.873
no_gap,R_1cUmxE0nB0eQ5tx,conj,m,sim_conj_rd_m_1,1,0.876,1,0.973
no_gap,R_1cUmxE0nB0eQ5tx,conj,m,sim_conj_rd_m_2,1,0.912,1,1.227
no_gap,R_1cUmxE0nB0eQ5tx,conj,m,sim_conj_rs_m_1,1,0.772,1,1.177
no_gap,R_1cUmxE0nB0eQ5tx,conj,m,sim_conj_rs_m_2,1,0.663,1,1.469
no_gap,R_1cUmxE0nB0eQ5tx,conj,mm,sim_conj_gd_mm_1,1,1.357,1,0.668
no_gap,R_1cUmxE0nB0eQ5tx,conj,mm,sim_conj_gd_mm_2,1,1.283,1,0.995
no_gap,R_1cUmxE0nB0eQ5tx,conj,mm,sim_conj_gs_mm_1,1,0.776,1,0.811
no_gap,R_1cUmxE0nB0eQ5tx,conj,mm,sim_conj_gs_mm_2,1,1.14,1,0.875
no_gap,R_1cUmxE0nB0eQ5tx,conj,mm,sim_conj_rd_mm_1,1,2.194,1,0.922
no_gap,R_1cUmxE0nB0eQ5tx,conj,mm,sim_conj_rd_mm_2,1,1.113,1,1.248
no_gap,R_1cUmxE0nB0eQ5tx,conj,mm,sim_conj_rs_mm_1,1,0.937,1,0.767
no_gap,R_1cUmxE0nB0eQ5tx,conj,mm,sim_conj_rs_mm_2,1,0.815,1,1.845
no_gap,R_1cUnP5PoHL3kGw8,conj,m,sim_conj_gd_m_1,1,1.202,1,0.798
no_gap,R_1cUnP5PoHL3kGw8,conj,m,sim_conj_gd_m_2,1,1.401,1,1.358
no_gap,R_1cUnP5PoHL3kGw8,conj,m,sim_conj_gs_m_1,1,1.483,0,1.262
no_gap,R_1cUnP5PoHL3kGw8,conj,m,sim_conj_gs_m_2,1,0.99,1,0.853
no_gap,R_1cUnP5PoHL3kGw8,conj,m,sim_conj_rd_m_1,1,1.614,1,1.58
no_gap,R_1cUnP5PoHL3kGw8,conj,m,sim_conj_rd_m_2,1,0.715,1,1.056
no_gap,R_1cUnP5PoHL3kGw8,conj,m,sim_conj_rs_m_1,1,0.999,1,0.918
no_gap,R_1cUnP5PoHL3kGw8,conj,m,sim_conj_rs_m_2,1,0.948,1,1.112
no_gap,R_1cUnP5PoHL3kGw8,conj,mm,sim_conj_gd_mm_1,1,0.978,0,1.303
no_gap,R_1cUnP5PoHL3kGw8,conj,mm,sim_conj_gd_mm_2,1,1.654,1,1.696
no_gap,R_1cUnP5PoHL3kGw8,conj,mm,sim_conj_gs_mm_1,1,1.102,1,1.205
no_gap,R_1cUnP5PoHL3kGw8,conj,mm,sim_conj_gs_mm_2,1,1.151,1,0.991
no_gap,R_1cUnP5PoHL3kGw8,conj,mm,sim_conj_rd_mm_1,1,0.94,1,0.66
no_gap,R_1cUnP5PoHL3kGw8,conj,mm,sim_conj_rd_mm_2,1,0.968,1,0.832
no_gap,R_1cUnP5PoHL3kGw8,conj,mm,sim_conj_rs_mm_1,1,0.908,1,1.394
no_gap,R_1cUnP5PoHL3kGw8,conj,mm,sim_conj_rs_mm_2,1,0.977,1,2.129
no_gap,R_1cZYqPuI2ovCe8d,conj,m,sim_conj_gd_m_1,1,0.661,1,1.031
no_gap,R_1cZYqPuI2ovCe8d,conj,m,sim_conj_gd_m_2,1,0.381,1,1.698
no_gap,R_1cZYqPuI2ovCe8d,conj,m,sim_conj_gs_m_1,1,0.602,1,2.038
no_gap,R_1cZYqPuI2ovCe8d,conj,m,sim_conj_gs_m_2,0,0.634,1,0.938
no_gap,R_1cZYqPuI2ovCe8d,conj,m,sim_conj_rd_m_1,0,1.223,1,5.915
no_gap,R_1cZYqPuI2ovCe8d,conj,m,sim_conj_rd_m_2,1,0.488,1,1.283
no_gap,R_1cZYqPuI2ovCe8d,conj,m,sim_conj_rs_m_1,1,0.837,1,1.181
no_gap,R_1cZYqPuI2ovCe8d,conj,m,sim_conj_rs_m_2,1,0.44,1,1.686
no_gap,R_1cZYqPuI2ovCe8d,conj,mm,sim_conj_gd_mm_1,1,0.715,1,1.966
no_gap,R_1cZYqPuI2ovCe8d,conj,mm,sim_conj_gd_mm_2,1,0.467,1,1.052
no_gap,R_1cZYqPuI2ovCe8d,conj,mm,sim_conj_gs_mm_1,1,0.762,1,0.932
no_gap,R_1cZYqPuI2ovCe8d,conj,mm,sim_conj_gs_mm_2,1,0.36,1,1.791
no_gap,R_1cZYqPuI2ovCe8d,conj,mm,sim_conj_rd_mm_1,1,0.455,1,1.21
no_gap,R_1cZYqPuI2ovCe8d,conj,mm,sim_conj_rd_mm_2,1,0.723,1,0.668
no_gap,R_1cZYqPuI2ovCe8d,conj,mm,sim_conj_rs_mm_1,1,1.029,1,2.176
no_gap,R_1cZYqPuI2ovCe8d,conj,mm,sim_conj_rs_mm_2,1,0.72,1,3.413
no_gap,R_1DuNzuDT2Ly6aYo,conj,m,sim_conj_gd_m_1,1,0.836,1,0.678
no_gap,R_1DuNzuDT2Ly6aYo,conj,m,sim_conj_gd_m_2,1,1.277,1,0.707
no_gap,R_1DuNzuDT2Ly6aYo,conj,m,sim_conj_gs_m_1,1,1.28,1,1.046
no_gap,R_1DuNzuDT2Ly6aYo,conj,m,sim_conj_gs_m_2,1,0.815,1,0.64
no_gap,R_1DuNzuDT2Ly6aYo,conj,m,sim_conj_rd_m_1,1,1.383,1,1.107
no_gap,R_1DuNzuDT2Ly6aYo,conj,m,sim_conj_rd_m_2,1,1.344,1,0.935
no_gap,R_1DuNzuDT2Ly6aYo,conj,m,sim_conj_rs_m_1,1,0.983,1,1.344
no_gap,R_1DuNzuDT2Ly6aYo,conj,m,sim_conj_rs_m_2,1,0.755,1,0.767
no_gap,R_1DuNzuDT2Ly6aYo,conj,mm,sim_conj_gd_mm_1,1,0.794,1,0.927
no_gap,R_1DuNzuDT2Ly6aYo,conj,mm,sim_conj_gd_mm_2,1,0.885,1,0.735
no_gap,R_1DuNzuDT2Ly6aYo,conj,mm,sim_conj_gs_mm_1,1,0.802,1,1.362
no_gap,R_1DuNzuDT2Ly6aYo,conj,mm,sim_conj_gs_mm_2,1,0.967,1,0.855
no_gap,R_1DuNzuDT2Ly6aYo,conj,mm,sim_conj_rd_mm_1,1,1.225,1,0.909
no_gap,R_1DuNzuDT2Ly6aYo,conj,mm,sim_conj_rd_mm_2,1,1.297,1,1.46
no_gap,R_1DuNzuDT2Ly6aYo,conj,mm,sim_conj_rs_mm_1,1,0.88,1,1.789
no_gap,R_1DuNzuDT2Ly6aYo,conj,mm,sim_conj_rs_mm_2,1,1.032,1,1.099
gap,R_1DUQTsUdLXCAotg,conj,m,sim_conj_gd_m_1,1,0.562,1,0.449
gap,R_1DUQTsUdLXCAotg,conj,m,sim_conj_gd_m_2,1,0.364,1,0.668
gap,R_1DUQTsUdLXCAotg,conj,m,sim_conj_gs_m_1,1,0.36,1,0.759
gap,R_1DUQTsUdLXCAotg,conj,m,sim_conj_gs_m_2,1,0.419,1,1.141
gap,R_1DUQTsUdLXCAotg,conj,m,sim_conj_rd_m_1,0,0.549,1,0.51
gap,R_1DUQTsUdLXCAotg,conj,m,sim_conj_rd_m_2,1,2.444,1,0.609
gap,R_1DUQTsUdLXCAotg,conj,m,sim_conj_rs_m_1,1,0.95,1,0.657
gap,R_1DUQTsUdLXCAotg,conj,m,sim_conj_rs_m_2,1,0.899,1,0.846
gap,R_1DUQTsUdLXCAotg,conj,mm,sim_conj_gd_mm_1,1,0.782,1,0.9
gap,R_1DUQTsUdLXCAotg,conj,mm,sim_conj_gd_mm_2,1,0.551,1,0.503
gap,R_1DUQTsUdLXCAotg,conj,mm,sim_conj_gs_mm_1,1,0.451,1,0.618
gap,R_1DUQTsUdLXCAotg,conj,mm,sim_conj_gs_mm_2,1,0.384,1,0.648
gap,R_1DUQTsUdLXCAotg,conj,mm,sim_conj_rd_mm_1,1,0.933,1,0.567
gap,R_1DUQTsUdLXCAotg,conj,mm,sim_conj_rd_mm_2,1,0.625,1,0.88
gap,R_1DUQTsUdLXCAotg,conj,mm,sim_conj_rs_mm_1,1,1.533,1,0.592
gap,R_1DUQTsUdLXCAotg,conj,mm,sim_conj_rs_mm_2,1,0.462,0,0.624
gap,R_1Ed18J86Ydnz5JK,conj,m,sim_conj_gd_m_1,1,1.63,1,1.756
gap,R_1Ed18J86Ydnz5JK,conj,m,sim_conj_gd_m_2,1,1.572,1,0.499
gap,R_1Ed18J86Ydnz5JK,conj,m,sim_conj_gs_m_1,0,0.631,1,0.485
gap,R_1Ed18J86Ydnz5JK,conj,m,sim_conj_gs_m_2,0,1.876,0,2.009
gap,R_1Ed18J86Ydnz5JK,conj,m,sim_conj_rd_m_1,1,0.889,0,1.197
gap,R_1Ed18J86Ydnz5JK,conj,m,sim_conj_rd_m_2,1,1.012,0,0.779
gap,R_1Ed18J86Ydnz5JK,conj,m,sim_conj_rs_m_1,1,1.205,0,2.358
gap,R_1Ed18J86Ydnz5JK,conj,m,sim_conj_rs_m_2,1,2.18,1,2.124
gap,R_1Ed18J86Ydnz5JK,conj,mm,sim_conj_gd_mm_1,1,1.134,1,0.511
gap,R_1Ed18J86Ydnz5JK,conj,mm,sim_conj_gd_mm_2,1,0.477,1,0.832
gap,R_1Ed18J86Ydnz5JK,conj,mm,sim_conj_gs_mm_1,1,1.353,1,0.36
gap,R_1Ed18J86Ydnz5JK,conj,mm,sim_conj_gs_mm_2,1,1.06,1,0.589
gap,R_1Ed18J86Ydnz5JK,conj,mm,sim_conj_rd_mm_1,1,0.511,1,0.742
gap,R_1Ed18J86Ydnz5JK,conj,mm,sim_conj_rd_mm_2,1,0.643,1,0.559
gap,R_1Ed18J86Ydnz5JK,conj,mm,sim_conj_rs_mm_1,1,1.486,1,1.451
gap,R_1Ed18J86Ydnz5JK,conj,mm,sim_conj_rs_mm_2,1,0.914,1,0.731
no_gap,R_1Ej3yOyXSRu4rHj,conj,m,sim_conj_gd_m_1,1,0.672,1,0.332
no_gap,R_1Ej3yOyXSRu4rHj,conj,m,sim_conj_gd_m_2,1,0.275,1,0.497
no_gap,R_1Ej3yOyXSRu4rHj,conj,m,sim_conj_gs_m_1,1,0.427,1,0.498
no_gap,R_1Ej3yOyXSRu4rHj,conj,m,sim_conj_gs_m_2,1,0.285,1,1.095
no_gap,R_1Ej3yOyXSRu4rHj,conj,m,sim_conj_rd_m_1,1,0.74,1,0.315
no_gap,R_1Ej3yOyXSRu4rHj,conj,m,sim_conj_rd_m_2,1,0.378,1,1.179
no_gap,R_1Ej3yOyXSRu4rHj,conj,m,sim_conj_rs_m_1,1,0.433,1,0.499
no_gap,R_1Ej3yOyXSRu4rHj,conj,m,sim_conj_rs_m_2,1,0.31,1,0.399
no_gap,R_1Ej3yOyXSRu4rHj,conj,mm,sim_conj_gd_mm_1,1,0.402,1,0.5
no_gap,R_1Ej3yOyXSRu4rHj,conj,mm,sim_conj_gd_mm_2,1,0.514,1,0.919
no_gap,R_1Ej3yOyXSRu4rHj,conj,mm,sim_conj_gs_mm_1,1,0.713,1,0.418
no_gap,R_1Ej3yOyXSRu4rHj,conj,mm,sim_conj_gs_mm_2,1,0.534,1,0.599
no_gap,R_1Ej3yOyXSRu4rHj,conj,mm,sim_conj_rd_mm_1,1,0.511,1,0.669
no_gap,R_1Ej3yOyXSRu4rHj,conj,mm,sim_conj_rd_mm_2,0,0.412,1,0.677
no_gap,R_1Ej3yOyXSRu4rHj,conj,mm,sim_conj_rs_mm_1,1,0.497,1,0.467
no_gap,R_1Ej3yOyXSRu4rHj,conj,mm,sim_conj_rs_mm_2,1,0.309,1,0.658
no_gap,R_1eK9C4dUWMG5UoE,conj,m,sim_conj_gd_m_1,1,0.555,1,0.55
no_gap,R_1eK9C4dUWMG5UoE,conj,m,sim_conj_gd_m_2,1,0.465,1,0.421
no_gap,R_1eK9C4dUWMG5UoE,conj,m,sim_conj_gs_m_1,1,0.695,1,0.416
no_gap,R_1eK9C4dUWMG5UoE,conj,m,sim_conj_gs_m_2,1,0.809,1,0.431
no_gap,R_1eK9C4dUWMG5UoE,conj,m,sim_conj_rd_m_1,1,0.395,1,0.401
no_gap,R_1eK9C4dUWMG5UoE,conj,m,sim_conj_rd_m_2,1,0.507,1,0.45
no_gap,R_1eK9C4dUWMG5UoE,conj,m,sim_conj_rs_m_1,1,0.653,1,0.592
no_gap,R_1eK9C4dUWMG5UoE,conj,m,sim_conj_rs_m_2,1,0.494,1,0.575
no_gap,R_1eK9C4dUWMG5UoE,conj,mm,sim_conj_gd_mm_1,1,0.777,1,0.994
no_gap,R_1eK9C4dUWMG5UoE,conj,mm,sim_conj_gd_mm_2,1,0.491,1,0.645
no_gap,R_1eK9C4dUWMG5UoE,conj,mm,sim_conj_gs_mm_1,1,0.468,1,1.122
no_gap,R_1eK9C4dUWMG5UoE,conj,mm,sim_conj_gs_mm_2,1,0.51,1,0.483
no_gap,R_1eK9C4dUWMG5UoE,conj,mm,sim_conj_rd_mm_1,1,0.617,1,0.49
no_gap,R_1eK9C4dUWMG5UoE,conj,mm,sim_conj_rd_mm_2,1,0.542,1,0.941
no_gap,R_1eK9C4dUWMG5UoE,conj,mm,sim_conj_rs_mm_1,1,0.45,1,1.003
no_gap,R_1eK9C4dUWMG5UoE,conj,mm,sim_conj_rs_mm_2,1,0.467,1,0.495
no_gap,R_1erta2V92H4drrE,conj,m,sim_conj_gd_m_1,1,1.138,0,5.036
no_gap,R_1erta2V92H4drrE,conj,m,sim_conj_gd_m_2,1,1.329,0,0.3
no_gap,R_1erta2V92H4drrE,conj,m,sim_conj_gs_m_1,1,1.04,0,52.691
no_gap,R_1erta2V92H4drrE,conj,m,sim_conj_gs_m_2,1,0.628,0,0.829
no_gap,R_1erta2V92H4drrE,conj,m,sim_conj_rd_m_1,1,1.922,1,2.63
no_gap,R_1erta2V92H4drrE,conj,m,sim_conj_rd_m_2,1,0.622,0,9.332
no_gap,R_1erta2V92H4drrE,conj,m,sim_conj_rs_m_1,1,0.004,1,1.352
no_gap,R_1erta2V92H4drrE,conj,m,sim_conj_rs_m_2,1,1.141,0,1.531
no_gap,R_1erta2V92H4drrE,conj,mm,sim_conj_gd_mm_1,0,1.338,1,1.642
no_gap,R_1erta2V92H4drrE,conj,mm,sim_conj_gd_mm_2,1,1.595,1,22.991
no_gap,R_1erta2V92H4drrE,conj,mm,sim_conj_gs_mm_1,1,0.78,1,1.221
no_gap,R_1erta2V92H4drrE,conj,mm,sim_conj_gs_mm_2,1,1.431,1,1.281
no_gap,R_1erta2V92H4drrE,conj,mm,sim_conj_rd_mm_1,1,1.401,1,6.486
no_gap,R_1erta2V92H4drrE,conj,mm,sim_conj_rd_mm_2,1,0.674,1,3.528
no_gap,R_1erta2V92H4drrE,conj,mm,sim_conj_rs_mm_1,1,1.991,1,1.867
no_gap,R_1erta2V92H4drrE,conj,mm,sim_conj_rs_mm_2,1,7.751,1,0.031
no_gap,R_1ex76BKICzdLpi3,conj,m,sim_conj_gd_m_1,1,1.012,1,0.919
no_gap,R_1ex76BKICzdLpi3,conj,m,sim_conj_gd_m_2,1,0.742,1,1.598
no_gap,R_1ex76BKICzdLpi3,conj,m,sim_conj_gs_m_1,1,0.662,1,1.396
no_gap,R_1ex76BKICzdLpi3,conj,m,sim_conj_gs_m_2,1,0.885,1,0.884
no_gap,R_1ex76BKICzdLpi3,conj,m,sim_conj_rd_m_1,1,0.713,1,0.998
no_gap,R_1ex76BKICzdLpi3,conj,m,sim_conj_rd_m_2,1,0.689,1,0.979
no_gap,R_1ex76BKICzdLpi3,conj,m,sim_conj_rs_m_1,1,0.957,1,1.013
no_gap,R_1ex76BKICzdLpi3,conj,m,sim_conj_rs_m_2,1,0.863,1,0.936
no_gap,R_1ex76BKICzdLpi3,conj,mm,sim_conj_gd_mm_1,1,0.898,1,1.234
no_gap,R_1ex76BKICzdLpi3,conj,mm,sim_conj_gd_mm_2,1,1.044,1,0.827
no_gap,R_1ex76BKICzdLpi3,conj,mm,sim_conj_gs_mm_1,1,0.628,1,1.372
no_gap,R_1ex76BKICzdLpi3,conj,mm,sim_conj_gs_mm_2,1,1.063,1,0.729
no_gap,R_1ex76BKICzdLpi3,conj,mm,sim_conj_rd_mm_1,1,0.812,1,1.37
no_gap,R_1ex76BKICzdLpi3,conj,mm,sim_conj_rd_mm_2,1,1.009,1,1.423
no_gap,R_1ex76BKICzdLpi3,conj,mm,sim_conj_rs_mm_1,1,0.998,1,0.956
no_gap,R_1ex76BKICzdLpi3,conj,mm,sim_conj_rs_mm_2,1,0.851,1,1.369
gap,R_1F3O1RwVVn1ANjS,conj,m,sim_conj_gd_m_1,1,1.202,1,0.578
gap,R_1F3O1RwVVn1ANjS,conj,m,sim_conj_gd_m_2,1,0.452,1,0.756
gap,R_1F3O1RwVVn1ANjS,conj,m,sim_conj_gs_m_1,1,1.011,0,0.941
gap,R_1F3O1RwVVn1ANjS,conj,m,sim_conj_gs_m_2,1,22.789,1,0.556
gap,R_1F3O1RwVVn1ANjS,conj,m,sim_conj_rd_m_1,1,1.069,1,0.667
gap,R_1F3O1RwVVn1ANjS,conj,m,sim_conj_rd_m_2,1,1.599,1,0.492
gap,R_1F3O1RwVVn1ANjS,conj,m,sim_conj_rs_m_1,1,1.86,1,0.537
gap,R_1F3O1RwVVn1ANjS,conj,m,sim_conj_rs_m_2,1,1.402,1,0.858
gap,R_1F3O1RwVVn1ANjS,conj,mm,sim_conj_gd_mm_1,1,2.069,1,0.647
gap,R_1F3O1RwVVn1ANjS,conj,mm,sim_conj_gd_mm_2,1,0.846,1,0.686
gap,R_1F3O1RwVVn1ANjS,conj,mm,sim_conj_gs_mm_1,1,0.641,1,0.589
gap,R_1F3O1RwVVn1ANjS,conj,mm,sim_conj_gs_mm_2,1,1.061,1,0.506
gap,R_1F3O1RwVVn1ANjS,conj,mm,sim_conj_rd_mm_1,1,0.593,1,0.515
gap,R_1F3O1RwVVn1ANjS,conj,mm,sim_conj_rd_mm_2,1,1.686,1,0.597
gap,R_1F3O1RwVVn1ANjS,conj,mm,sim_conj_rs_mm_1,0,1.415,1,1.087
gap,R_1F3O1RwVVn1ANjS,conj,mm,sim_conj_rs_mm_2,1,0.604,1,1.004
gap,R_1fd9g37kVcLlQon,conj,m,sim_conj_gd_m_1,0,1.707,1,0.495
gap,R_1fd9g37kVcLlQon,conj,m,sim_conj_gd_m_2,1,0.569,1,1.435
gap,R_1fd9g37kVcLlQon,conj,m,sim_conj_gs_m_1,1,0.569,0,0.991
gap,R_1fd9g37kVcLlQon,conj,m,sim_conj_gs_m_2,1,0.531,1,0.694
gap,R_1fd9g37kVcLlQon,conj,m,sim_conj_rd_m_1,1,0.727,1,0.515
gap,R_1fd9g37kVcLlQon,conj,m,sim_conj_rd_m_2,1,1.8,1,0.667
gap,R_1fd9g37kVcLlQon,conj,m,sim_conj_rs_m_1,1,1.018,1,0.464
gap,R_1fd9g37kVcLlQon,conj,m,sim_conj_rs_m_2,1,0.459,1,0.741
gap,R_1fd9g37kVcLlQon,conj,mm,sim_conj_gd_mm_1,1,0.431,1,0.648
gap,R_1fd9g37kVcLlQon,conj,mm,sim_conj_gd_mm_2,1,0.814,1,1.246
gap,R_1fd9g37kVcLlQon,conj,mm,sim_conj_gs_mm_1,1,1.068,1,1.076
gap,R_1fd9g37kVcLlQon,conj,mm,sim_conj_gs_mm_2,1,0.977,1,0.878
gap,R_1fd9g37kVcLlQon,conj,mm,sim_conj_rd_mm_1,1,1.016,1,0.667
gap,R_1fd9g37kVcLlQon,conj,mm,sim_conj_rd_mm_2,1,1.058,1,0.707
gap,R_1fd9g37kVcLlQon,conj,mm,sim_conj_rs_mm_1,1,0.683,1,0.688
gap,R_1fd9g37kVcLlQon,conj,mm,sim_conj_rs_mm_2,1,0.896,1,0.71
gap,R_1fjeMABd9YtFdM2,conj,m,sim_conj_gd_m_1,1,1.495,1,0.795
gap,R_1fjeMABd9YtFdM2,conj,m,sim_conj_gd_m_2,1,0.885,0,0.736
gap,R_1fjeMABd9YtFdM2,conj,m,sim_conj_gs_m_1,1,1.161,1,0.756
gap,R_1fjeMABd9YtFdM2,conj,m,sim_conj_gs_m_2,1,0.529,1,1.093
gap,R_1fjeMABd9YtFdM2,conj,m,sim_conj_rd_m_1,1,0.922,1,1.052
gap,R_1fjeMABd9YtFdM2,conj,m,sim_conj_rd_m_2,1,1.05,1,1.023
gap,R_1fjeMABd9YtFdM2,conj,m,sim_conj_rs_m_1,1,0.998,1,0.51
gap,R_1fjeMABd9YtFdM2,conj,m,sim_conj_rs_m_2,1,1.021,1,0.914
gap,R_1fjeMABd9YtFdM2,conj,mm,sim_conj_gd_mm_1,1,0.912,1,0.741
gap,R_1fjeMABd9YtFdM2,conj,mm,sim_conj_gd_mm_2,1,0.835,1,1.145
gap,R_1fjeMABd9YtFdM2,conj,mm,sim_conj_gs_mm_1,1,0.9,0,1.103
gap,R_1fjeMABd9YtFdM2,conj,mm,sim_conj_gs_mm_2,1,0.781,0,1.998
gap,R_1fjeMABd9YtFdM2,conj,mm,sim_conj_rd_mm_1,1,1.004,1,0.588
gap,R_1fjeMABd9YtFdM2,conj,mm,sim_conj_rd_mm_2,1,1.207,1,1.331
gap,R_1fjeMABd9YtFdM2,conj,mm,sim_conj_rs_mm_1,1,0.888,1,0.533
gap,R_1fjeMABd9YtFdM2,conj,mm,sim_conj_rs_mm_2,1,1.037,0,0.667
gap,R_1FkyCxrQzCKlVM3,conj,m,sim_conj_gd_m_1,1,0.825,1,0.777
gap,R_1FkyCxrQzCKlVM3,conj,m,sim_conj_gd_m_2,1,0.989,1,1.207
gap,R_1FkyCxrQzCKlVM3,conj,m,sim_conj_gs_m_1,1,0.859,0,1.776
gap,R_1FkyCxrQzCKlVM3,conj,m,sim_conj_gs_m_2,1,0.75,1,0.853
gap,R_1FkyCxrQzCKlVM3,conj,m,sim_conj_rd_m_1,1,1.706,1,0.796
gap,R_1FkyCxrQzCKlVM3,conj,m,sim_conj_rd_m_2,1,0.629,1,0.944
gap,R_1FkyCxrQzCKlVM3,conj,m,sim_conj_rs_m_1,1,1.017,1,0.873
gap,R_1FkyCxrQzCKlVM3,conj,m,sim_conj_rs_m_2,0,1.231,1,0.961
gap,R_1FkyCxrQzCKlVM3,conj,mm,sim_conj_gd_mm_1,1,0.728,1,0.747
gap,R_1FkyCxrQzCKlVM3,conj,mm,sim_conj_gd_mm_2,1,0.965,1,0.955
gap,R_1FkyCxrQzCKlVM3,conj,mm,sim_conj_gs_mm_1,1,0.948,1,0.926
gap,R_1FkyCxrQzCKlVM3,conj,mm,sim_conj_gs_mm_2,1,0.864,1,1.895
gap,R_1FkyCxrQzCKlVM3,conj,mm,sim_conj_rd_mm_1,1,0.989,1,1.01
gap,R_1FkyCxrQzCKlVM3,conj,mm,sim_conj_rd_mm_2,0,0.567,1,0.787
gap,R_1FkyCxrQzCKlVM3,conj,mm,sim_conj_rs_mm_1,1,0.971,1,0.677
gap,R_1FkyCxrQzCKlVM3,conj,mm,sim_conj_rs_mm_2,1,1.12,1,1.191
no_gap,R_1flJVVkbxzk1i5c,conj,m,sim_conj_gd_m_1,1,0.519,1,0.762
no_gap,R_1flJVVkbxzk1i5c,conj,m,sim_conj_gd_m_2,1,0.586,1,1.359
no_gap,R_1flJVVkbxzk1i5c,conj,m,sim_conj_gs_m_1,1,0.509,1,0.796
no_gap,R_1flJVVkbxzk1i5c,conj,m,sim_conj_gs_m_2,1,0.438,1,0.641
no_gap,R_1flJVVkbxzk1i5c,conj,m,sim_conj_rd_m_1,1,0.44,1,0.647
no_gap,R_1flJVVkbxzk1i5c,conj,m,sim_conj_rd_m_2,1,0.593,1,0.495
no_gap,R_1flJVVkbxzk1i5c,conj,m,sim_conj_rs_m_1,1,0.606,1,0.799
no_gap,R_1flJVVkbxzk1i5c,conj,m,sim_conj_rs_m_2,1,0.487,1,0.431
no_gap,R_1flJVVkbxzk1i5c,conj,mm,sim_conj_gd_mm_1,1,0.548,1,0.896
no_gap,R_1flJVVkbxzk1i5c,conj,mm,sim_conj_gd_mm_2,1,0.492,1,0.707
no_gap,R_1flJVVkbxzk1i5c,conj,mm,sim_conj_gs_mm_1,1,0.452,1,0.844
no_gap,R_1flJVVkbxzk1i5c,conj,mm,sim_conj_gs_mm_2,1,0.592,1,0.685
no_gap,R_1flJVVkbxzk1i5c,conj,mm,sim_conj_rd_mm_1,1,0.427,1,0.51
no_gap,R_1flJVVkbxzk1i5c,conj,mm,sim_conj_rd_mm_2,1,0.703,1,0.53
no_gap,R_1flJVVkbxzk1i5c,conj,mm,sim_conj_rs_mm_1,1,0.532,1,1.152
no_gap,R_1flJVVkbxzk1i5c,conj,mm,sim_conj_rs_mm_2,1,0.486,1,0.823
gap,R_1FlZaoI26lrL1xW,conj,m,sim_conj_gd_m_1,1,0.483,1,0.82
gap,R_1FlZaoI26lrL1xW,conj,m,sim_conj_gd_m_2,1,1.194,1,0.519
gap,R_1FlZaoI26lrL1xW,conj,m,sim_conj_gs_m_1,0,0.557,1,0.5
gap,R_1FlZaoI26lrL1xW,conj,m,sim_conj_gs_m_2,0,1.146,1,0.669
gap,R_1FlZaoI26lrL1xW,conj,m,sim_conj_rd_m_1,1,0.485,1,0.455
gap,R_1FlZaoI26lrL1xW,conj,m,sim_conj_rd_m_2,1,0.483,1,0.49
gap,R_1FlZaoI26lrL1xW,conj,m,sim_conj_rs_m_1,1,0.662,1,0.558
gap,R_1FlZaoI26lrL1xW,conj,m,sim_conj_rs_m_2,1,0.679,1,0.562
gap,R_1FlZaoI26lrL1xW,conj,mm,sim_conj_gd_mm_1,1,0.545,1,0.522
gap,R_1FlZaoI26lrL1xW,conj,mm,sim_conj_gd_mm_2,1,0.707,1,0.585
gap,R_1FlZaoI26lrL1xW,conj,mm,sim_conj_gs_mm_1,1,1.031,1,0.801
gap,R_1FlZaoI26lrL1xW,conj,mm,sim_conj_gs_mm_2,1,0.773,1,0.687
gap,R_1FlZaoI26lrL1xW,conj,mm,sim_conj_rd_mm_1,1,0.723,0,0.661
gap,R_1FlZaoI26lrL1xW,conj,mm,sim_conj_rd_mm_2,1,0.733,1,0.607
gap,R_1FlZaoI26lrL1xW,conj,mm,sim_conj_rs_mm_1,1,0.503,1,0.539
gap,R_1FlZaoI26lrL1xW,conj,mm,sim_conj_rs_mm_2,1,2.49,1,0.697
gap,R_1FQy7LAFBlt3sbw,conj,m,sim_conj_gd_m_1,1,0.585,1,1.132
gap,R_1FQy7LAFBlt3sbw,conj,m,sim_conj_gd_m_2,0,1.23,1,1.378
gap,R_1FQy7LAFBlt3sbw,conj,m,sim_conj_gs_m_1,1,1.184,1,0.76
gap,R_1FQy7LAFBlt3sbw,conj,m,sim_conj_gs_m_2,1,0.977,1,1.134
gap,R_1FQy7LAFBlt3sbw,conj,m,sim_conj_rd_m_1,1,1.09,1,1.786
gap,R_1FQy7LAFBlt3sbw,conj,m,sim_conj_rd_m_2,1,1.467,1,1.279
gap,R_1FQy7LAFBlt3sbw,conj,m,sim_conj_rs_m_1,1,1.021,1,0.9
gap,R_1FQy7LAFBlt3sbw,conj,m,sim_conj_rs_m_2,1,1.087,1,1.094
gap,R_1FQy7LAFBlt3sbw,conj,mm,sim_conj_gd_mm_1,1,0.743,1,1.224
gap,R_1FQy7LAFBlt3sbw,conj,mm,sim_conj_gd_mm_2,1,0.747,1,0.931
gap,R_1FQy7LAFBlt3sbw,conj,mm,sim_conj_gs_mm_1,1,0.814,1,0.809
gap,R_1FQy7LAFBlt3sbw,conj,mm,sim_conj_gs_mm_2,1,0.968,0,1.43
gap,R_1FQy7LAFBlt3sbw,conj,mm,sim_conj_rd_mm_1,1,0.825,1,0.54
gap,R_1FQy7LAFBlt3sbw,conj,mm,sim_conj_rd_mm_2,1,1.612,0,0.793
gap,R_1FQy7LAFBlt3sbw,conj,mm,sim_conj_rs_mm_1,1,1.304,1,1.043
gap,R_1FQy7LAFBlt3sbw,conj,mm,sim_conj_rs_mm_2,1,0.876,1,1.89
gap,R_1FzvTdctlBl6mau,conj,m,sim_conj_gd_m_1,1,1.143,1,1.423
gap,R_1FzvTdctlBl6mau,conj,m,sim_conj_gd_m_2,1,1.604,1,1.163
gap,R_1FzvTdctlBl6mau,conj,m,sim_conj_gs_m_1,1,0.613,1,0.965
gap,R_1FzvTdctlBl6mau,conj,m,sim_conj_gs_m_2,0,0.552,1,1.909
gap,R_1FzvTdctlBl6mau,conj,m,sim_conj_rd_m_1,0,2.974,1,1.715
gap,R_1FzvTdctlBl6mau,conj,m,sim_conj_rd_m_2,1,0.797,1,0.86
gap,R_1FzvTdctlBl6mau,conj,m,sim_conj_rs_m_1,1,0.761,1,1.639
gap,R_1FzvTdctlBl6mau,conj,m,sim_conj_rs_m_2,1,1.282,1,1.006
gap,R_1FzvTdctlBl6mau,conj,mm,sim_conj_gd_mm_1,1,1.565,1,1.868
gap,R_1FzvTdctlBl6mau,conj,mm,sim_conj_gd_mm_2,1,1.058,1,0.69
gap,R_1FzvTdctlBl6mau,conj,mm,sim_conj_gs_mm_1,1,0.95,0,2.028
gap,R_1FzvTdctlBl6mau,conj,mm,sim_conj_gs_mm_2,1,0.662,1,1.067
gap,R_1FzvTdctlBl6mau,conj,mm,sim_conj_rd_mm_1,1,0.911,1,0.939
gap,R_1FzvTdctlBl6mau,conj,mm,sim_conj_rd_mm_2,1,0.669,1,0.876
gap,R_1FzvTdctlBl6mau,conj,mm,sim_conj_rs_mm_1,1,0.741,1,0.632
gap,R_1FzvTdctlBl6mau,conj,mm,sim_conj_rs_mm_2,1,1.005,0,2.072
no_gap,R_1g6KjG4gA3vEJF7,conj,m,sim_conj_gd_m_1,1,0.404,1,0.703
no_gap,R_1g6KjG4gA3vEJF7,conj,m,sim_conj_gd_m_2,1,1.004,1,0.772
no_gap,R_1g6KjG4gA3vEJF7,conj,m,sim_conj_gs_m_1,1,1.6,1,1.255
no_gap,R_1g6KjG4gA3vEJF7,conj,m,sim_conj_gs_m_2,1,0.674,1,0.747
no_gap,R_1g6KjG4gA3vEJF7,conj,m,sim_conj_rd_m_1,1,1.056,1,0.94
no_gap,R_1g6KjG4gA3vEJF7,conj,m,sim_conj_rd_m_2,1,1.097,1,1.255
no_gap,R_1g6KjG4gA3vEJF7,conj,m,sim_conj_rs_m_1,1,0.849,1,0.474
no_gap,R_1g6KjG4gA3vEJF7,conj,m,sim_conj_rs_m_2,1,0.752,1,0.973
no_gap,R_1g6KjG4gA3vEJF7,conj,mm,sim_conj_gd_mm_1,1,1.319,1,0.463
no_gap,R_1g6KjG4gA3vEJF7,conj,mm,sim_conj_gd_mm_2,1,1.624,1,0.932
no_gap,R_1g6KjG4gA3vEJF7,conj,mm,sim_conj_gs_mm_1,1,0.961,1,0.493
no_gap,R_1g6KjG4gA3vEJF7,conj,mm,sim_conj_gs_mm_2,1,2.533,1,1.028
no_gap,R_1g6KjG4gA3vEJF7,conj,mm,sim_conj_rd_mm_1,1,1.213,1,0.844
no_gap,R_1g6KjG4gA3vEJF7,conj,mm,sim_conj_rd_mm_2,1,0.543,1,1.868
no_gap,R_1g6KjG4gA3vEJF7,conj,mm,sim_conj_rs_mm_1,1,0.611,1,1.533
no_gap,R_1g6KjG4gA3vEJF7,conj,mm,sim_conj_rs_mm_2,0,0.946,1,0.452
gap,R_1GEw2ntVr6WT5FY,conj,m,sim_conj_gd_m_1,1,0.462,0,0.538
gap,R_1GEw2ntVr6WT5FY,conj,m,sim_conj_gd_m_2,1,0.487,1,0.788
gap,R_1GEw2ntVr6WT5FY,conj,m,sim_conj_gs_m_1,1,0.487,1,0.791
gap,R_1GEw2ntVr6WT5FY,conj,m,sim_conj_gs_m_2,1,0.75,1,0.456
gap,R_1GEw2ntVr6WT5FY,conj,m,sim_conj_rd_m_1,1,0.463,1,0.487
gap,R_1GEw2ntVr6WT5FY,conj,m,sim_conj_rd_m_2,1,0.429,1,0.451
gap,R_1GEw2ntVr6WT5FY,conj,m,sim_conj_rs_m_1,1,0.516,1,0.465
gap,R_1GEw2ntVr6WT5FY,conj,m,sim_conj_rs_m_2,1,0.43,1,0.86
gap,R_1GEw2ntVr6WT5FY,conj,mm,sim_conj_gd_mm_1,1,0.494,1,0.82
gap,R_1GEw2ntVr6WT5FY,conj,mm,sim_conj_gd_mm_2,1,0.555,1,0.794
gap,R_1GEw2ntVr6WT5FY,conj,mm,sim_conj_gs_mm_1,1,0.694,1,0.695
gap,R_1GEw2ntVr6WT5FY,conj,mm,sim_conj_gs_mm_2,1,0.554,1,0.545
gap,R_1GEw2ntVr6WT5FY,conj,mm,sim_conj_rd_mm_1,1,0.551,1,0.513
gap,R_1GEw2ntVr6WT5FY,conj,mm,sim_conj_rd_mm_2,1,0.521,1,1.847
gap,R_1GEw2ntVr6WT5FY,conj,mm,sim_conj_rs_mm_1,1,0.551,1,1.248
gap,R_1GEw2ntVr6WT5FY,conj,mm,sim_conj_rs_mm_2,1,0.774,1,1.475
gap,R_1gGFiI9dwPgNWnF,conj,m,sim_conj_gd_m_1,1,0.909,1,0.577
gap,R_1gGFiI9dwPgNWnF,conj,m,sim_conj_gd_m_2,1,0.619,1,1.132
gap,R_1gGFiI9dwPgNWnF,conj,m,sim_conj_gs_m_1,1,0.454,1,0.573
gap,R_1gGFiI9dwPgNWnF,conj,m,sim_conj_gs_m_2,1,0.744,1,0.68
gap,R_1gGFiI9dwPgNWnF,conj,m,sim_conj_rd_m_1,1,0.825,1,0.734
gap,R_1gGFiI9dwPgNWnF,conj,m,sim_conj_rd_m_2,1,0.415,1,1.004
gap,R_1gGFiI9dwPgNWnF,conj,m,sim_conj_rs_m_1,0,0.54,1,0.66
gap,R_1gGFiI9dwPgNWnF,conj,m,sim_conj_rs_m_2,1,0.628,1,0.675
gap,R_1gGFiI9dwPgNWnF,conj,mm,sim_conj_gd_mm_1,1,0.792,1,0.609
gap,R_1gGFiI9dwPgNWnF,conj,mm,sim_conj_gd_mm_2,0,0.532,1,0.737
gap,R_1gGFiI9dwPgNWnF,conj,mm,sim_conj_gs_mm_1,1,0.698,1,0.935
gap,R_1gGFiI9dwPgNWnF,conj,mm,sim_conj_gs_mm_2,1,0.847,1,0.838
gap,R_1gGFiI9dwPgNWnF,conj,mm,sim_conj_rd_mm_1,1,0.466,1,0.605
gap,R_1gGFiI9dwPgNWnF,conj,mm,sim_conj_rd_mm_2,1,0.379,1,1.53
gap,R_1gGFiI9dwPgNWnF,conj,mm,sim_conj_rs_mm_1,0,0.877,1,1.128
gap,R_1gGFiI9dwPgNWnF,conj,mm,sim_conj_rs_mm_2,1,0.725,1,0.639
no_gap,R_1gHKNsWNE1ugMUa,conj,m,sim_conj_gd_m_1,1,0.778,1,1.204
no_gap,R_1gHKNsWNE1ugMUa,conj,m,sim_conj_gd_m_2,1,1.324,1,1.388
no_gap,R_1gHKNsWNE1ugMUa,conj,m,sim_conj_gs_m_1,1,1.2,1,1.518
no_gap,R_1gHKNsWNE1ugMUa,conj,m,sim_conj_gs_m_2,1,0.799,1,1.622
no_gap,R_1gHKNsWNE1ugMUa,conj,m,sim_conj_rd_m_1,1,1.601,1,1.876
no_gap,R_1gHKNsWNE1ugMUa,conj,m,sim_conj_rd_m_2,1,0.65,1,1.282
no_gap,R_1gHKNsWNE1ugMUa,conj,m,sim_conj_rs_m_1,1,1.104,1,1.218
no_gap,R_1gHKNsWNE1ugMUa,conj,m,sim_conj_rs_m_2,1,1.419,1,1.305
no_gap,R_1gHKNsWNE1ugMUa,conj,mm,sim_conj_gd_mm_1,1,1.075,1,1.489
no_gap,R_1gHKNsWNE1ugMUa,conj,mm,sim_conj_gd_mm_2,1,1.001,1,1.34
no_gap,R_1gHKNsWNE1ugMUa,conj,mm,sim_conj_gs_mm_1,1,0.688,1,1.217
no_gap,R_1gHKNsWNE1ugMUa,conj,mm,sim_conj_gs_mm_2,1,1.104,0,1.707
no_gap,R_1gHKNsWNE1ugMUa,conj,mm,sim_conj_rd_mm_1,1,1.042,1,1.256
no_gap,R_1gHKNsWNE1ugMUa,conj,mm,sim_conj_rd_mm_2,1,1.086,1,1.619
no_gap,R_1gHKNsWNE1ugMUa,conj,mm,sim_conj_rs_mm_1,1,2.269,1,1.062
no_gap,R_1gHKNsWNE1ugMUa,conj,mm,sim_conj_rs_mm_2,1,0.972,0,1.122
gap,R_1gTnf5neAjKhFhT,conj,m,sim_conj_gd_m_1,0,6.001,1,0.551
gap,R_1gTnf5neAjKhFhT,conj,m,sim_conj_gd_m_2,0,2.313,1,1.076
gap,R_1gTnf5neAjKhFhT,conj,m,sim_conj_gs_m_1,1,2.326,1,0.584
gap,R_1gTnf5neAjKhFhT,conj,m,sim_conj_gs_m_2,0,3.969,1,1.047
gap,R_1gTnf5neAjKhFhT,conj,m,sim_conj_rd_m_1,1,1.12,1,0.567
gap,R_1gTnf5neAjKhFhT,conj,m,sim_conj_rd_m_2,1,3.793,1,1.257
gap,R_1gTnf5neAjKhFhT,conj,m,sim_conj_rs_m_1,0,10.342,1,0.868
gap,R_1gTnf5neAjKhFhT,conj,m,sim_conj_rs_m_2,1,0.59,1,1.122
gap,R_1gTnf5neAjKhFhT,conj,mm,sim_conj_gd_mm_1,0,1.088,1,1.157
gap,R_1gTnf5neAjKhFhT,conj,mm,sim_conj_gd_mm_2,1,0.721,1,0.831
gap,R_1gTnf5neAjKhFhT,conj,mm,sim_conj_gs_mm_1,1,13.057,1,1.27
gap,R_1gTnf5neAjKhFhT,conj,mm,sim_conj_gs_mm_2,1,0.796,0,2.361
gap,R_1gTnf5neAjKhFhT,conj,mm,sim_conj_rd_mm_1,1,0.906,1,1.383
gap,R_1gTnf5neAjKhFhT,conj,mm,sim_conj_rd_mm_2,0,1.763,1,1.313
gap,R_1gTnf5neAjKhFhT,conj,mm,sim_conj_rs_mm_1,1,2.493,1,0.851
gap,R_1gTnf5neAjKhFhT,conj,mm,sim_conj_rs_mm_2,1,0.768,1,1.831
gap,R_1H5WiYRCLXLoMr6,conj,m,sim_conj_gd_m_1,1,0.88,1,0.465
gap,R_1H5WiYRCLXLoMr6,conj,m,sim_conj_gd_m_2,1,0.54,1,0.661
gap,R_1H5WiYRCLXLoMr6,conj,m,sim_conj_gs_m_1,1,0.606,1,0.745
gap,R_1H5WiYRCLXLoMr6,conj,m,sim_conj_gs_m_2,1,0.947,1,0.598
gap,R_1H5WiYRCLXLoMr6,conj,m,sim_conj_rd_m_1,1,1.981,1,0.894
gap,R_1H5WiYRCLXLoMr6,conj,m,sim_conj_rd_m_2,1,1.193,1,1.229
gap,R_1H5WiYRCLXLoMr6,conj,m,sim_conj_rs_m_1,1,0.998,1,1.143
gap,R_1H5WiYRCLXLoMr6,conj,m,sim_conj_rs_m_2,1,1.176,1,0.948
gap,R_1H5WiYRCLXLoMr6,conj,mm,sim_conj_gd_mm_1,1,0.676,1,0.927
gap,R_1H5WiYRCLXLoMr6,conj,mm,sim_conj_gd_mm_2,1,0.986,1,0.863
gap,R_1H5WiYRCLXLoMr6,conj,mm,sim_conj_gs_mm_1,1,0.977,1,0.874
gap,R_1H5WiYRCLXLoMr6,conj,mm,sim_conj_gs_mm_2,1,0.887,1,1.039
gap,R_1H5WiYRCLXLoMr6,conj,mm,sim_conj_rd_mm_1,1,0.762,1,1.062
gap,R_1H5WiYRCLXLoMr6,conj,mm,sim_conj_rd_mm_2,1,0.795,1,0.552
gap,R_1H5WiYRCLXLoMr6,conj,mm,sim_conj_rs_mm_1,1,0.999,1,0.965
gap,R_1H5WiYRCLXLoMr6,conj,mm,sim_conj_rs_mm_2,1,0.725,1,1.048
gap,R_1hKL5I25Q84xW4U,conj,m,sim_conj_gd_m_1,1,3.465,1,2.913
gap,R_1hKL5I25Q84xW4U,conj,m,sim_conj_gd_m_2,1,3.215,1,1.366
gap,R_1hKL5I25Q84xW4U,conj,m,sim_conj_gs_m_1,1,1.919,1,2.814
gap,R_1hKL5I25Q84xW4U,conj,m,sim_conj_gs_m_2,1,1.386,1,1.805
gap,R_1hKL5I25Q84xW4U,conj,m,sim_conj_rd_m_1,1,2.602,1,2.359
gap,R_1hKL5I25Q84xW4U,conj,m,sim_conj_rd_m_2,1,2.075,1,2.451
gap,R_1hKL5I25Q84xW4U,conj,m,sim_conj_rs_m_1,1,1.773,1,2.654
gap,R_1hKL5I25Q84xW4U,conj,m,sim_conj_rs_m_2,1,2.15,1,2.094
gap,R_1hKL5I25Q84xW4U,conj,mm,sim_conj_gd_mm_1,0,1.419,1,15.727
gap,R_1hKL5I25Q84xW4U,conj,mm,sim_conj_gd_mm_2,0,1.04,1,2.907
gap,R_1hKL5I25Q84xW4U,conj,mm,sim_conj_gs_mm_1,1,2.932,1,7.536
gap,R_1hKL5I25Q84xW4U,conj,mm,sim_conj_gs_mm_2,1,6.774,1,1.314
gap,R_1hKL5I25Q84xW4U,conj,mm,sim_conj_rd_mm_1,1,3.322,1,10.107
gap,R_1hKL5I25Q84xW4U,conj,mm,sim_conj_rd_mm_2,0,0.562,1,2.308
gap,R_1hKL5I25Q84xW4U,conj,mm,sim_conj_rs_mm_1,1,7.771,1,2.009
gap,R_1hKL5I25Q84xW4U,conj,mm,sim_conj_rs_mm_2,1,2.07,1,4.209
no_gap,R_1HkLtKPGeWEXFwg,conj,m,sim_conj_gd_m_1,1,0.948,1,1.318
no_gap,R_1HkLtKPGeWEXFwg,conj,m,sim_conj_gd_m_2,1,0.847,1,0.695
no_gap,R_1HkLtKPGeWEXFwg,conj,m,sim_conj_gs_m_1,1,0.766,1,0.636
no_gap,R_1HkLtKPGeWEXFwg,conj,m,sim_conj_gs_m_2,1,0.974,1,0.82
no_gap,R_1HkLtKPGeWEXFwg,conj,m,sim_conj_rd_m_1,1,0.724,1,0.953
no_gap,R_1HkLtKPGeWEXFwg,conj,m,sim_conj_rd_m_2,1,1.113,1,1.009
no_gap,R_1HkLtKPGeWEXFwg,conj,m,sim_conj_rs_m_1,1,1.099,1,1.016
no_gap,R_1HkLtKPGeWEXFwg,conj,m,sim_conj_rs_m_2,1,0.774,1,1.049
no_gap,R_1HkLtKPGeWEXFwg,conj,mm,sim_conj_gd_mm_1,1,0.627,1,1.054
no_gap,R_1HkLtKPGeWEXFwg,conj,mm,sim_conj_gd_mm_2,1,0.615,1,1.41
no_gap,R_1HkLtKPGeWEXFwg,conj,mm,sim_conj_gs_mm_1,1,0.869,1,1.137
no_gap,R_1HkLtKPGeWEXFwg,conj,mm,sim_conj_gs_mm_2,1,0.607,1,2.7
no_gap,R_1HkLtKPGeWEXFwg,conj,mm,sim_conj_rd_mm_1,1,0.83,1,0.869
no_gap,R_1HkLtKPGeWEXFwg,conj,mm,sim_conj_rd_mm_2,1,0.792,1,0.782
no_gap,R_1HkLtKPGeWEXFwg,conj,mm,sim_conj_rs_mm_1,1,0.817,1,1.128
no_gap,R_1HkLtKPGeWEXFwg,conj,mm,sim_conj_rs_mm_2,1,0.852,1,0.891
no_gap,R_1HpZbLVjg7CUvTk,conj,m,sim_conj_gd_m_1,1,1.326,1,1.211
no_gap,R_1HpZbLVjg7CUvTk,conj,m,sim_conj_gd_m_2,1,0.972,1,1.22
no_gap,R_1HpZbLVjg7CUvTk,conj,m,sim_conj_gs_m_1,1,0.972,1,0.948
no_gap,R_1HpZbLVjg7CUvTk,conj,m,sim_conj_gs_m_2,0,0.623,0,0.658
no_gap,R_1HpZbLVjg7CUvTk,conj,m,sim_conj_rd_m_1,1,1.031,1,5.431
no_gap,R_1HpZbLVjg7CUvTk,conj,m,sim_conj_rd_m_2,1,1.07,1,1.262
no_gap,R_1HpZbLVjg7CUvTk,conj,m,sim_conj_rs_m_1,1,0.566,1,0.796
no_gap,R_1HpZbLVjg7CUvTk,conj,m,sim_conj_rs_m_2,1,0.599,0,0.787
no_gap,R_1HpZbLVjg7CUvTk,conj,mm,sim_conj_gd_mm_1,1,1.014,1,0.944
no_gap,R_1HpZbLVjg7CUvTk,conj,mm,sim_conj_gd_mm_2,1,0.837,1,1.09
no_gap,R_1HpZbLVjg7CUvTk,conj,mm,sim_conj_gs_mm_1,1,0.873,1,0.735
no_gap,R_1HpZbLVjg7CUvTk,conj,mm,sim_conj_gs_mm_2,1,1.107,1,1.176
no_gap,R_1HpZbLVjg7CUvTk,conj,mm,sim_conj_rd_mm_1,1,0.59,1,0.699
no_gap,R_1HpZbLVjg7CUvTk,conj,mm,sim_conj_rd_mm_2,1,1.341,1,9.919
no_gap,R_1HpZbLVjg7CUvTk,conj,mm,sim_conj_rs_mm_1,1,1.112,1,1.155
no_gap,R_1HpZbLVjg7CUvTk,conj,mm,sim_conj_rs_mm_2,1,0.66,0,0.742
gap,R_1hXp8VCud7SMiKb,conj,m,sim_conj_gd_m_1,1,1.102,1,0.778
gap,R_1hXp8VCud7SMiKb,conj,m,sim_conj_gd_m_2,1,0.455,1,0.544
gap,R_1hXp8VCud7SMiKb,conj,m,sim_conj_gs_m_1,1,0.636,1,0.633
gap,R_1hXp8VCud7SMiKb,conj,m,sim_conj_gs_m_2,1,0.452,1,1.386
gap,R_1hXp8VCud7SMiKb,conj,m,sim_conj_rd_m_1,0,0.709,1,1.171
gap,R_1hXp8VCud7SMiKb,conj,m,sim_conj_rd_m_2,1,0.872,1,0.94
gap,R_1hXp8VCud7SMiKb,conj,m,sim_conj_rs_m_1,1,0.574,1,0.456
gap,R_1hXp8VCud7SMiKb,conj,m,sim_conj_rs_m_2,1,0.542,1,1.17
gap,R_1hXp8VCud7SMiKb,conj,mm,sim_conj_gd_mm_1,1,0.676,1,0.699
gap,R_1hXp8VCud7SMiKb,conj,mm,sim_conj_gd_mm_2,1,0.779,1,0.732
gap,R_1hXp8VCud7SMiKb,conj,mm,sim_conj_gs_mm_1,1,0.611,1,0.545
gap,R_1hXp8VCud7SMiKb,conj,mm,sim_conj_gs_mm_2,1,0.575,1,0.881
gap,R_1hXp8VCud7SMiKb,conj,mm,sim_conj_rd_mm_1,1,0.555,1,0.739
gap,R_1hXp8VCud7SMiKb,conj,mm,sim_conj_rd_mm_2,1,0.83,1,1.089
gap,R_1hXp8VCud7SMiKb,conj,mm,sim_conj_rs_mm_1,1,0.56,1,0.851
gap,R_1hXp8VCud7SMiKb,conj,mm,sim_conj_rs_mm_2,1,0.589,0,0.674
no_gap,R_1hzkst2wvP8JIH4,conj,m,sim_conj_gd_m_1,1,0.926,1,0.87
no_gap,R_1hzkst2wvP8JIH4,conj,m,sim_conj_gd_m_2,1,0.793,1,0.617
no_gap,R_1hzkst2wvP8JIH4,conj,m,sim_conj_gs_m_1,1,0.736,0,0.745
no_gap,R_1hzkst2wvP8JIH4,conj,m,sim_conj_gs_m_2,1,0.435,1,0.569
no_gap,R_1hzkst2wvP8JIH4,conj,m,sim_conj_rd_m_1,1,1.051,0,0.45
no_gap,R_1hzkst2wvP8JIH4,conj,m,sim_conj_rd_m_2,1,0.764,1,0.58
no_gap,R_1hzkst2wvP8JIH4,conj,m,sim_conj_rs_m_1,1,0.555,1,0.425
no_gap,R_1hzkst2wvP8JIH4,conj,m,sim_conj_rs_m_2,1,0.75,1,0.618
no_gap,R_1hzkst2wvP8JIH4,conj,mm,sim_conj_gd_mm_1,1,0.579,1,0.523
no_gap,R_1hzkst2wvP8JIH4,conj,mm,sim_conj_gd_mm_2,1,1.017,1,0.635
no_gap,R_1hzkst2wvP8JIH4,conj,mm,sim_conj_gs_mm_1,1,0.508,1,0.821
no_gap,R_1hzkst2wvP8JIH4,conj,mm,sim_conj_gs_mm_2,1,0.917,1,0.856
no_gap,R_1hzkst2wvP8JIH4,conj,mm,sim_conj_rd_mm_1,1,0.755,1,0.652
no_gap,R_1hzkst2wvP8JIH4,conj,mm,sim_conj_rd_mm_2,1,0.898,1,0.591
no_gap,R_1hzkst2wvP8JIH4,conj,mm,sim_conj_rs_mm_1,1,0.814,1,0.533
no_gap,R_1hzkst2wvP8JIH4,conj,mm,sim_conj_rs_mm_2,1,0.503,1,0.565
gap,R_1IagvrDfWeu1SzI,conj,m,sim_conj_gd_m_1,1,1.333,1,0.845
gap,R_1IagvrDfWeu1SzI,conj,m,sim_conj_gd_m_2,1,0.595,1,0.786
gap,R_1IagvrDfWeu1SzI,conj,m,sim_conj_gs_m_1,1,2.434,1,1.182
gap,R_1IagvrDfWeu1SzI,conj,m,sim_conj_gs_m_2,1,1.309,1,0.657
gap,R_1IagvrDfWeu1SzI,conj,m,sim_conj_rd_m_1,1,1.586,1,0.645
gap,R_1IagvrDfWeu1SzI,conj,m,sim_conj_rd_m_2,1,1.697,1,0.548
gap,R_1IagvrDfWeu1SzI,conj,m,sim_conj_rs_m_1,1,1.066,1,0.739
gap,R_1IagvrDfWeu1SzI,conj,m,sim_conj_rs_m_2,1,1.277,0,1.317
gap,R_1IagvrDfWeu1SzI,conj,mm,sim_conj_gd_mm_1,1,1.712,1,0.529
gap,R_1IagvrDfWeu1SzI,conj,mm,sim_conj_gd_mm_2,1,0.68,1,1.324
gap,R_1IagvrDfWeu1SzI,conj,mm,sim_conj_gs_mm_1,0,0.999,1,0.77
gap,R_1IagvrDfWeu1SzI,conj,mm,sim_conj_gs_mm_2,1,0.628,1,0.565
gap,R_1IagvrDfWeu1SzI,conj,mm,sim_conj_rd_mm_1,1,1.401,1,0.448
gap,R_1IagvrDfWeu1SzI,conj,mm,sim_conj_rd_mm_2,1,1.313,1,0.994
gap,R_1IagvrDfWeu1SzI,conj,mm,sim_conj_rs_mm_1,1,0.574,1,1.142
gap,R_1IagvrDfWeu1SzI,conj,mm,sim_conj_rs_mm_2,1,0.575,1,1.097
gap,R_1iffR2ZzRyikKgD,conj,m,sim_conj_gd_m_1,1,0.84,1,0.603
gap,R_1iffR2ZzRyikKgD,conj,m,sim_conj_gd_m_2,1,0.526,1,0.85
gap,R_1iffR2ZzRyikKgD,conj,m,sim_conj_gs_m_1,1,0.495,1,0.437
gap,R_1iffR2ZzRyikKgD,conj,m,sim_conj_gs_m_2,1,0.388,1,0.655
gap,R_1iffR2ZzRyikKgD,conj,m,sim_conj_rd_m_1,0,0.401,1,0.697
gap,R_1iffR2ZzRyikKgD,conj,m,sim_conj_rd_m_2,1,4.261,1,0.521
gap,R_1iffR2ZzRyikKgD,conj,m,sim_conj_rs_m_1,1,1.561,1,0.347
gap,R_1iffR2ZzRyikKgD,conj,m,sim_conj_rs_m_2,1,1.187,1,0.399
gap,R_1iffR2ZzRyikKgD,conj,mm,sim_conj_gd_mm_1,1,0.68,1,0.683
gap,R_1iffR2ZzRyikKgD,conj,mm,sim_conj_gd_mm_2,1,1.16,1,0.619
gap,R_1iffR2ZzRyikKgD,conj,mm,sim_conj_gs_mm_1,1,0.496,0,1.113
gap,R_1iffR2ZzRyikKgD,conj,mm,sim_conj_gs_mm_2,0,1.194,1,0.476
gap,R_1iffR2ZzRyikKgD,conj,mm,sim_conj_rd_mm_1,1,1.028,1,0.744
gap,R_1iffR2ZzRyikKgD,conj,mm,sim_conj_rd_mm_2,1,0.502,1,0.771
gap,R_1iffR2ZzRyikKgD,conj,mm,sim_conj_rs_mm_1,1,1.025,1,0.788
gap,R_1iffR2ZzRyikKgD,conj,mm,sim_conj_rs_mm_2,1,0.575,1,0.608
no_gap,R_1IfTVw1P9JXGPqL,conj,m,sim_conj_gd_m_1,1,0.465,1,0.739
no_gap,R_1IfTVw1P9JXGPqL,conj,m,sim_conj_gd_m_2,1,0.495,1,1.47
no_gap,R_1IfTVw1P9JXGPqL,conj,m,sim_conj_gs_m_1,1,0.542,1,0.661
no_gap,R_1IfTVw1P9JXGPqL,conj,m,sim_conj_gs_m_2,1,0.599,1,0.759
no_gap,R_1IfTVw1P9JXGPqL,conj,m,sim_conj_rd_m_1,1,0.681,1,0.799
no_gap,R_1IfTVw1P9JXGPqL,conj,m,sim_conj_rd_m_2,1,0.495,1,1.007
no_gap,R_1IfTVw1P9JXGPqL,conj,m,sim_conj_rs_m_1,1,0.85,1,0.383
no_gap,R_1IfTVw1P9JXGPqL,conj,m,sim_conj_rs_m_2,1,0.624,1,0.98
no_gap,R_1IfTVw1P9JXGPqL,conj,mm,sim_conj_gd_mm_1,1,0.521,1,0.7
no_gap,R_1IfTVw1P9JXGPqL,conj,mm,sim_conj_gd_mm_2,1,0.978,1,0.642
no_gap,R_1IfTVw1P9JXGPqL,conj,mm,sim_conj_gs_mm_1,1,0.698,1,0.761
no_gap,R_1IfTVw1P9JXGPqL,conj,mm,sim_conj_gs_mm_2,1,0.64,1,0.807
no_gap,R_1IfTVw1P9JXGPqL,conj,mm,sim_conj_rd_mm_1,1,0.866,1,0.756
no_gap,R_1IfTVw1P9JXGPqL,conj,mm,sim_conj_rd_mm_2,1,1.511,1,0.582
no_gap,R_1IfTVw1P9JXGPqL,conj,mm,sim_conj_rs_mm_1,1,2.304,1,1.204
no_gap,R_1IfTVw1P9JXGPqL,conj,mm,sim_conj_rs_mm_2,1,1.787,1,0.779
no_gap,R_1imoeufCHjjazMW,conj,m,sim_conj_gd_m_1,1,0.811,1,0.45
no_gap,R_1imoeufCHjjazMW,conj,m,sim_conj_gd_m_2,1,0.631,1,0.668
no_gap,R_1imoeufCHjjazMW,conj,m,sim_conj_gs_m_1,1,0.593,1,1.118
no_gap,R_1imoeufCHjjazMW,conj,m,sim_conj_gs_m_2,1,0.472,1,1.607
no_gap,R_1imoeufCHjjazMW,conj,m,sim_conj_rd_m_1,1,0.915,1,0.942
no_gap,R_1imoeufCHjjazMW,conj,m,sim_conj_rd_m_2,1,0.376,1,0.501
no_gap,R_1imoeufCHjjazMW,conj,m,sim_conj_rs_m_1,1,0.811,1,0.375
no_gap,R_1imoeufCHjjazMW,conj,m,sim_conj_rs_m_2,1,0.841,1,0.502
no_gap,R_1imoeufCHjjazMW,conj,mm,sim_conj_gd_mm_1,1,0.601,1,2.316
no_gap,R_1imoeufCHjjazMW,conj,mm,sim_conj_gd_mm_2,1,1.748,1,0.641
no_gap,R_1imoeufCHjjazMW,conj,mm,sim_conj_gs_mm_1,1,0.679,1,0.467
no_gap,R_1imoeufCHjjazMW,conj,mm,sim_conj_gs_mm_2,1,0.567,1,0.597
no_gap,R_1imoeufCHjjazMW,conj,mm,sim_conj_rd_mm_1,1,0.478,1,0.438
no_gap,R_1imoeufCHjjazMW,conj,mm,sim_conj_rd_mm_2,1,0.778,1,0.627
no_gap,R_1imoeufCHjjazMW,conj,mm,sim_conj_rs_mm_1,1,0.605,1,0.556
no_gap,R_1imoeufCHjjazMW,conj,mm,sim_conj_rs_mm_2,1,0.564,1,0.63
no_gap,R_1IR8kofj9wFWdIF,conj,m,sim_conj_gd_m_1,1,0.801,1,0.887
no_gap,R_1IR8kofj9wFWdIF,conj,m,sim_conj_gd_m_2,1,1.368,1,1.655
no_gap,R_1IR8kofj9wFWdIF,conj,m,sim_conj_gs_m_1,1,1.017,1,1.923
no_gap,R_1IR8kofj9wFWdIF,conj,m,sim_conj_gs_m_2,1,1.347,1,1.428
no_gap,R_1IR8kofj9wFWdIF,conj,m,sim_conj_rd_m_1,1,1.32,1,2.018
no_gap,R_1IR8kofj9wFWdIF,conj,m,sim_conj_rd_m_2,1,1.28,1,1.149
no_gap,R_1IR8kofj9wFWdIF,conj,m,sim_conj_rs_m_1,1,1.46,1,1.416
no_gap,R_1IR8kofj9wFWdIF,conj,m,sim_conj_rs_m_2,1,1.327,1,0.832
no_gap,R_1IR8kofj9wFWdIF,conj,mm,sim_conj_gd_mm_1,1,1.046,1,1.802
no_gap,R_1IR8kofj9wFWdIF,conj,mm,sim_conj_gd_mm_2,1,1.247,1,1.248
no_gap,R_1IR8kofj9wFWdIF,conj,mm,sim_conj_gs_mm_1,1,1.86,1,0.852
no_gap,R_1IR8kofj9wFWdIF,conj,mm,sim_conj_gs_mm_2,1,1.269,1,3.226
no_gap,R_1IR8kofj9wFWdIF,conj,mm,sim_conj_rd_mm_1,1,1.253,1,6.905
no_gap,R_1IR8kofj9wFWdIF,conj,mm,sim_conj_rd_mm_2,1,1.131,1,1.485
no_gap,R_1IR8kofj9wFWdIF,conj,mm,sim_conj_rs_mm_1,1,1.972,0,1.362
no_gap,R_1IR8kofj9wFWdIF,conj,mm,sim_conj_rs_mm_2,1,1.236,1,1.634
no_gap,R_1ISOn43feC1HgrC,conj,m,sim_conj_gd_m_1,1,0.901,1,2.06
no_gap,R_1ISOn43feC1HgrC,conj,m,sim_conj_gd_m_2,1,2.613,1,1.323
no_gap,R_1ISOn43feC1HgrC,conj,m,sim_conj_gs_m_1,1,0.883,1,0.515
no_gap,R_1ISOn43feC1HgrC,conj,m,sim_conj_gs_m_2,1,0.938,1,0.631
no_gap,R_1ISOn43feC1HgrC,conj,m,sim_conj_rd_m_1,1,8.614,1,0.576
no_gap,R_1ISOn43feC1HgrC,conj,m,sim_conj_rd_m_2,1,1.315,1,1.314
no_gap,R_1ISOn43feC1HgrC,conj,m,sim_conj_rs_m_1,1,0.555,1,1.856
no_gap,R_1ISOn43feC1HgrC,conj,m,sim_conj_rs_m_2,1,2.179,1,1.068
no_gap,R_1ISOn43feC1HgrC,conj,mm,sim_conj_gd_mm_1,0,0.516,1,1.131
no_gap,R_1ISOn43feC1HgrC,conj,mm,sim_conj_gd_mm_2,0,0.666,1,0.75
no_gap,R_1ISOn43feC1HgrC,conj,mm,sim_conj_gs_mm_1,1,0.656,1,1.223
no_gap,R_1ISOn43feC1HgrC,conj,mm,sim_conj_gs_mm_2,1,0.746,1,1.161
no_gap,R_1ISOn43feC1HgrC,conj,mm,sim_conj_rd_mm_1,1,1.187,1,0.623
no_gap,R_1ISOn43feC1HgrC,conj,mm,sim_conj_rd_mm_2,1,1.026,1,1.014
no_gap,R_1ISOn43feC1HgrC,conj,mm,sim_conj_rs_mm_1,1,1.519,1,0.66
no_gap,R_1ISOn43feC1HgrC,conj,mm,sim_conj_rs_mm_2,1,0.614,0,0.503
no_gap,R_1IXVr7a4rbLclDy,conj,m,sim_conj_gd_m_1,1,1.128,1,0.44
no_gap,R_1IXVr7a4rbLclDy,conj,m,sim_conj_gd_m_2,1,1.856,1,1.45
no_gap,R_1IXVr7a4rbLclDy,conj,m,sim_conj_gs_m_1,1,1.518,1,1.07
no_gap,R_1IXVr7a4rbLclDy,conj,m,sim_conj_gs_m_2,1,5.164,0,1.356
no_gap,R_1IXVr7a4rbLclDy,conj,m,sim_conj_rd_m_1,1,1.32,1,1.433
no_gap,R_1IXVr7a4rbLclDy,conj,m,sim_conj_rd_m_2,1,1.019,1,1.118
no_gap,R_1IXVr7a4rbLclDy,conj,m,sim_conj_rs_m_1,1,0.912,1,1.448
no_gap,R_1IXVr7a4rbLclDy,conj,m,sim_conj_rs_m_2,1,2.348,1,1.081
no_gap,R_1IXVr7a4rbLclDy,conj,mm,sim_conj_gd_mm_1,1,0.971,1,1.99
no_gap,R_1IXVr7a4rbLclDy,conj,mm,sim_conj_gd_mm_2,1,4.623,1,1.247
no_gap,R_1IXVr7a4rbLclDy,conj,mm,sim_conj_gs_mm_1,1,0.624,1,0.964
no_gap,R_1IXVr7a4rbLclDy,conj,mm,sim_conj_gs_mm_2,1,1.274,0,0.507
no_gap,R_1IXVr7a4rbLclDy,conj,mm,sim_conj_rd_mm_1,1,1.414,1,0.711
no_gap,R_1IXVr7a4rbLclDy,conj,mm,sim_conj_rd_mm_2,1,4.466,1,1.728
no_gap,R_1IXVr7a4rbLclDy,conj,mm,sim_conj_rs_mm_1,1,1.701,1,2.94
no_gap,R_1IXVr7a4rbLclDy,conj,mm,sim_conj_rs_mm_2,1,0.632,1,5.741
no_gap,R_1jCgwQdSLoXJHUV,conj,m,sim_conj_gd_m_1,1,1.922,1,0.431
no_gap,R_1jCgwQdSLoXJHUV,conj,m,sim_conj_gd_m_2,1,2.749,1,1.032
no_gap,R_1jCgwQdSLoXJHUV,conj,m,sim_conj_gs_m_1,1,0.468,1,1.431
no_gap,R_1jCgwQdSLoXJHUV,conj,m,sim_conj_gs_m_2,1,1.041,1,0.73
no_gap,R_1jCgwQdSLoXJHUV,conj,m,sim_conj_rd_m_1,1,1.595,1,0.734
no_gap,R_1jCgwQdSLoXJHUV,conj,m,sim_conj_rd_m_2,1,0.483,1,1.68
no_gap,R_1jCgwQdSLoXJHUV,conj,m,sim_conj_rs_m_1,1,1.455,1,1
no_gap,R_1jCgwQdSLoXJHUV,conj,m,sim_conj_rs_m_2,1,1.356,1,1.148
no_gap,R_1jCgwQdSLoXJHUV,conj,mm,sim_conj_gd_mm_1,1,1.357,1,0.958
no_gap,R_1jCgwQdSLoXJHUV,conj,mm,sim_conj_gd_mm_2,1,1.661,1,0.873
no_gap,R_1jCgwQdSLoXJHUV,conj,mm,sim_conj_gs_mm_1,1,0.682,1,1.25
no_gap,R_1jCgwQdSLoXJHUV,conj,mm,sim_conj_gs_mm_2,1,0.947,1,1.502
no_gap,R_1jCgwQdSLoXJHUV,conj,mm,sim_conj_rd_mm_1,1,2.71,1,1.31
no_gap,R_1jCgwQdSLoXJHUV,conj,mm,sim_conj_rd_mm_2,1,1.112,1,1.188
no_gap,R_1jCgwQdSLoXJHUV,conj,mm,sim_conj_rs_mm_1,1,1.95,1,1.025
no_gap,R_1jCgwQdSLoXJHUV,conj,mm,sim_conj_rs_mm_2,1,1.213,1,1.532
no_gap,R_1jDKVL7IiGl9Yg2,conj,m,sim_conj_gd_m_1,1,3.512,1,3.166
no_gap,R_1jDKVL7IiGl9Yg2,conj,m,sim_conj_gd_m_2,1,1.098,1,1.55
no_gap,R_1jDKVL7IiGl9Yg2,conj,m,sim_conj_gs_m_1,1,1.343,1,1.123
no_gap,R_1jDKVL7IiGl9Yg2,conj,m,sim_conj_gs_m_2,1,1.155,1,0.591
no_gap,R_1jDKVL7IiGl9Yg2,conj,m,sim_conj_rd_m_1,1,1.934,1,1.234
no_gap,R_1jDKVL7IiGl9Yg2,conj,m,sim_conj_rd_m_2,1,1.131,0,1.067
no_gap,R_1jDKVL7IiGl9Yg2,conj,m,sim_conj_rs_m_1,1,1.151,1,1.094
no_gap,R_1jDKVL7IiGl9Yg2,conj,m,sim_conj_rs_m_2,1,1.168,1,2.159
no_gap,R_1jDKVL7IiGl9Yg2,conj,mm,sim_conj_gd_mm_1,1,1.476,0,1.024
no_gap,R_1jDKVL7IiGl9Yg2,conj,mm,sim_conj_gd_mm_2,1,2.037,1,1.776
no_gap,R_1jDKVL7IiGl9Yg2,conj,mm,sim_conj_gs_mm_1,1,1.434,1,1.617
no_gap,R_1jDKVL7IiGl9Yg2,conj,mm,sim_conj_gs_mm_2,1,1.392,1,2.168
no_gap,R_1jDKVL7IiGl9Yg2,conj,mm,sim_conj_rd_mm_1,1,0.897,1,1.165
no_gap,R_1jDKVL7IiGl9Yg2,conj,mm,sim_conj_rd_mm_2,1,1.047,1,1.354
no_gap,R_1jDKVL7IiGl9Yg2,conj,mm,sim_conj_rs_mm_1,1,0.919,1,1.172
no_gap,R_1jDKVL7IiGl9Yg2,conj,mm,sim_conj_rs_mm_2,1,2.28,0,2.307
no_gap,R_1jE8xih7Lg9IirX,conj,m,sim_conj_gd_m_1,1,0.426,1,0.518
no_gap,R_1jE8xih7Lg9IirX,conj,m,sim_conj_gd_m_2,1,0.56,1,0.413
no_gap,R_1jE8xih7Lg9IirX,conj,m,sim_conj_gs_m_1,1,0.449,1,0.513
no_gap,R_1jE8xih7Lg9IirX,conj,m,sim_conj_gs_m_2,1,0.402,1,0.413
no_gap,R_1jE8xih7Lg9IirX,conj,m,sim_conj_rd_m_1,1,0.414,1,1.114
no_gap,R_1jE8xih7Lg9IirX,conj,m,sim_conj_rd_m_2,1,0.366,0,0.623
no_gap,R_1jE8xih7Lg9IirX,conj,m,sim_conj_rs_m_1,1,0.427,1,0.375
no_gap,R_1jE8xih7Lg9IirX,conj,m,sim_conj_rs_m_2,1,0.38,1,0.433
no_gap,R_1jE8xih7Lg9IirX,conj,mm,sim_conj_gd_mm_1,1,0.476,1,0.409
no_gap,R_1jE8xih7Lg9IirX,conj,mm,sim_conj_gd_mm_2,1,0.632,1,0.436
no_gap,R_1jE8xih7Lg9IirX,conj,mm,sim_conj_gs_mm_1,1,0.771,1,0.448
no_gap,R_1jE8xih7Lg9IirX,conj,mm,sim_conj_gs_mm_2,1,0.412,1,0.604
no_gap,R_1jE8xih7Lg9IirX,conj,mm,sim_conj_rd_mm_1,1,0.428,1,0.414
no_gap,R_1jE8xih7Lg9IirX,conj,mm,sim_conj_rd_mm_2,1,0.407,1,0.484
no_gap,R_1jE8xih7Lg9IirX,conj,mm,sim_conj_rs_mm_1,1,0.462,1,0.458
no_gap,R_1jE8xih7Lg9IirX,conj,mm,sim_conj_rs_mm_2,1,0.608,1,0.522
no_gap,R_1jH3pdKIvdSHNIY,conj,m,sim_conj_gd_m_1,0,0.609,1,0.753
no_gap,R_1jH3pdKIvdSHNIY,conj,m,sim_conj_gd_m_2,1,0.816,1,0.813
no_gap,R_1jH3pdKIvdSHNIY,conj,m,sim_conj_gs_m_1,1,0.581,1,0.737
no_gap,R_1jH3pdKIvdSHNIY,conj,m,sim_conj_gs_m_2,1,0.749,1,0.66
no_gap,R_1jH3pdKIvdSHNIY,conj,m,sim_conj_rd_m_1,1,0.563,1,0.828
no_gap,R_1jH3pdKIvdSHNIY,conj,m,sim_conj_rd_m_2,1,0.384,1,0.872
no_gap,R_1jH3pdKIvdSHNIY,conj,m,sim_conj_rs_m_1,1,0.578,1,1.015
no_gap,R_1jH3pdKIvdSHNIY,conj,m,sim_conj_rs_m_2,1,0.48,1,0.563
no_gap,R_1jH3pdKIvdSHNIY,conj,mm,sim_conj_gd_mm_1,1,0.659,0,1.126
no_gap,R_1jH3pdKIvdSHNIY,conj,mm,sim_conj_gd_mm_2,1,0.69,1,0.916
no_gap,R_1jH3pdKIvdSHNIY,conj,mm,sim_conj_gs_mm_1,1,0.769,1,0.655
no_gap,R_1jH3pdKIvdSHNIY,conj,mm,sim_conj_gs_mm_2,1,0.85,1,0.733
no_gap,R_1jH3pdKIvdSHNIY,conj,mm,sim_conj_rd_mm_1,1,0.549,1,0.701
no_gap,R_1jH3pdKIvdSHNIY,conj,mm,sim_conj_rd_mm_2,1,0.711,1,0.734
no_gap,R_1jH3pdKIvdSHNIY,conj,mm,sim_conj_rs_mm_1,1,0.97,1,0.597
no_gap,R_1jH3pdKIvdSHNIY,conj,mm,sim_conj_rs_mm_2,1,0.678,1,0.773
gap,R_1jrMskfuP7Mrr9S,conj,m,sim_conj_gd_m_1,1,0.374,1,0.35
gap,R_1jrMskfuP7Mrr9S,conj,m,sim_conj_gd_m_2,1,0.362,1,0.571
gap,R_1jrMskfuP7Mrr9S,conj,m,sim_conj_gs_m_1,1,0.386,1,0.854
gap,R_1jrMskfuP7Mrr9S,conj,m,sim_conj_gs_m_2,1,0.343,1,0.561
gap,R_1jrMskfuP7Mrr9S,conj,m,sim_conj_rd_m_1,1,0.381,0,0.496
gap,R_1jrMskfuP7Mrr9S,conj,m,sim_conj_rd_m_2,1,0.705,1,0.511
gap,R_1jrMskfuP7Mrr9S,conj,m,sim_conj_rs_m_1,1,0.436,1,0.753
gap,R_1jrMskfuP7Mrr9S,conj,m,sim_conj_rs_m_2,1,0.379,1,0.43
gap,R_1jrMskfuP7Mrr9S,conj,mm,sim_conj_gd_mm_1,1,0.42,1,0.437
gap,R_1jrMskfuP7Mrr9S,conj,mm,sim_conj_gd_mm_2,1,0.577,1,0.574
gap,R_1jrMskfuP7Mrr9S,conj,mm,sim_conj_gs_mm_1,1,0.56,1,0.628
gap,R_1jrMskfuP7Mrr9S,conj,mm,sim_conj_gs_mm_2,1,0.409,1,1.127
gap,R_1jrMskfuP7Mrr9S,conj,mm,sim_conj_rd_mm_1,1,0.584,1,0.417
gap,R_1jrMskfuP7Mrr9S,conj,mm,sim_conj_rd_mm_2,1,0.409,1,0.518
gap,R_1jrMskfuP7Mrr9S,conj,mm,sim_conj_rs_mm_1,1,0.444,1,0.68
gap,R_1jrMskfuP7Mrr9S,conj,mm,sim_conj_rs_mm_2,0,0.513,1,0.823
no_gap,R_1jrzi2l761541zF,conj,m,sim_conj_gd_m_1,1,0.514,0,0.713
no_gap,R_1jrzi2l761541zF,conj,m,sim_conj_gd_m_2,1,0.718,1,0.559
no_gap,R_1jrzi2l761541zF,conj,m,sim_conj_gs_m_1,1,0.751,1,0.573
no_gap,R_1jrzi2l761541zF,conj,m,sim_conj_gs_m_2,1,0.447,1,0.499
no_gap,R_1jrzi2l761541zF,conj,m,sim_conj_rd_m_1,1,0.923,1,1.038
no_gap,R_1jrzi2l761541zF,conj,m,sim_conj_rd_m_2,1,0.59,1,0.562
no_gap,R_1jrzi2l761541zF,conj,m,sim_conj_rs_m_1,1,0.729,1,0.647
no_gap,R_1jrzi2l761541zF,conj,m,sim_conj_rs_m_2,1,0.711,1,0.448
no_gap,R_1jrzi2l761541zF,conj,mm,sim_conj_gd_mm_1,1,0.73,1,0.768
no_gap,R_1jrzi2l761541zF,conj,mm,sim_conj_gd_mm_2,1,0.803,0,0.561
no_gap,R_1jrzi2l761541zF,conj,mm,sim_conj_gs_mm_1,1,0.599,1,0.557
no_gap,R_1jrzi2l761541zF,conj,mm,sim_conj_gs_mm_2,1,0.658,1,0.631
no_gap,R_1jrzi2l761541zF,conj,mm,sim_conj_rd_mm_1,1,0.718,1,1.106
no_gap,R_1jrzi2l761541zF,conj,mm,sim_conj_rd_mm_2,1,0.508,1,1.101
no_gap,R_1jrzi2l761541zF,conj,mm,sim_conj_rs_mm_1,1,0.53,1,1.149
no_gap,R_1jrzi2l761541zF,conj,mm,sim_conj_rs_mm_2,1,0.585,1,0.761
gap,R_1K2LTDdSTkk0CkO,conj,m,sim_conj_gd_m_1,1,0.618,1,0.415
gap,R_1K2LTDdSTkk0CkO,conj,m,sim_conj_gd_m_2,1,0.654,1,0.741
gap,R_1K2LTDdSTkk0CkO,conj,m,sim_conj_gs_m_1,1,0.796,1,1.246
gap,R_1K2LTDdSTkk0CkO,conj,m,sim_conj_gs_m_2,1,1.497,1,0.852
gap,R_1K2LTDdSTkk0CkO,conj,m,sim_conj_rd_m_1,1,0.842,1,1.022
gap,R_1K2LTDdSTkk0CkO,conj,m,sim_conj_rd_m_2,1,0.702,1,0.6
gap,R_1K2LTDdSTkk0CkO,conj,m,sim_conj_rs_m_1,1,0.944,1,0.345
gap,R_1K2LTDdSTkk0CkO,conj,m,sim_conj_rs_m_2,1,0.844,1,0.572
gap,R_1K2LTDdSTkk0CkO,conj,mm,sim_conj_gd_mm_1,0,0.573,1,0.528
gap,R_1K2LTDdSTkk0CkO,conj,mm,sim_conj_gd_mm_2,0,0.632,1,0.736
gap,R_1K2LTDdSTkk0CkO,conj,mm,sim_conj_gs_mm_1,1,0.76,0,0.955
gap,R_1K2LTDdSTkk0CkO,conj,mm,sim_conj_gs_mm_2,1,1.251,0,0.979
gap,R_1K2LTDdSTkk0CkO,conj,mm,sim_conj_rd_mm_1,1,0.475,0,0.498
gap,R_1K2LTDdSTkk0CkO,conj,mm,sim_conj_rd_mm_2,1,0.51,1,0.813
gap,R_1K2LTDdSTkk0CkO,conj,mm,sim_conj_rs_mm_1,1,1.013,1,0.832
gap,R_1K2LTDdSTkk0CkO,conj,mm,sim_conj_rs_mm_2,1,0.992,1,0.61
no_gap,R_1K3eLYRF0WM0F1x,conj,m,sim_conj_gd_m_1,1,1.173,1,1.507
no_gap,R_1K3eLYRF0WM0F1x,conj,m,sim_conj_gd_m_2,1,0.537,1,2.477
no_gap,R_1K3eLYRF0WM0F1x,conj,m,sim_conj_gs_m_1,1,1.301,1,1.302
no_gap,R_1K3eLYRF0WM0F1x,conj,m,sim_conj_gs_m_2,1,0.5,1,1.548
no_gap,R_1K3eLYRF0WM0F1x,conj,m,sim_conj_rd_m_1,1,0.641,1,2.639
no_gap,R_1K3eLYRF0WM0F1x,conj,m,sim_conj_rd_m_2,1,1.327,1,1.054
no_gap,R_1K3eLYRF0WM0F1x,conj,m,sim_conj_rs_m_1,1,2.157,1,2.119
no_gap,R_1K3eLYRF0WM0F1x,conj,m,sim_conj_rs_m_2,1,1.009,1,1.404
no_gap,R_1K3eLYRF0WM0F1x,conj,mm,sim_conj_gd_mm_1,1,1.221,1,1.776
no_gap,R_1K3eLYRF0WM0F1x,conj,mm,sim_conj_gd_mm_2,1,1.285,1,1.294
no_gap,R_1K3eLYRF0WM0F1x,conj,mm,sim_conj_gs_mm_1,1,1.516,1,1.217
no_gap,R_1K3eLYRF0WM0F1x,conj,mm,sim_conj_gs_mm_2,1,1.168,1,2.136
no_gap,R_1K3eLYRF0WM0F1x,conj,mm,sim_conj_rd_mm_1,1,1.264,1,1.187
no_gap,R_1K3eLYRF0WM0F1x,conj,mm,sim_conj_rd_mm_2,1,1.133,1,1.209
no_gap,R_1K3eLYRF0WM0F1x,conj,mm,sim_conj_rs_mm_1,1,1.213,1,1.553
no_gap,R_1K3eLYRF0WM0F1x,conj,mm,sim_conj_rs_mm_2,1,2.026,1,1.659
no_gap,R_1K6KGucq5uhaFzv,conj,m,sim_conj_gd_m_1,1,1.252,1,1.569
no_gap,R_1K6KGucq5uhaFzv,conj,m,sim_conj_gd_m_2,1,0.864,1,1.07
no_gap,R_1K6KGucq5uhaFzv,conj,m,sim_conj_gs_m_1,1,1.16,1,0.814
no_gap,R_1K6KGucq5uhaFzv,conj,m,sim_conj_gs_m_2,1,1.515,1,1.689
no_gap,R_1K6KGucq5uhaFzv,conj,m,sim_conj_rd_m_1,1,1.779,1,1.381
no_gap,R_1K6KGucq5uhaFzv,conj,m,sim_conj_rd_m_2,1,1.095,1,1.345
no_gap,R_1K6KGucq5uhaFzv,conj,m,sim_conj_rs_m_1,1,1.709,1,1.498
no_gap,R_1K6KGucq5uhaFzv,conj,m,sim_conj_rs_m_2,1,1.852,1,3.435
no_gap,R_1K6KGucq5uhaFzv,conj,mm,sim_conj_gd_mm_1,1,1.609,1,0.649
no_gap,R_1K6KGucq5uhaFzv,conj,mm,sim_conj_gd_mm_2,1,2.386,1,1.975
no_gap,R_1K6KGucq5uhaFzv,conj,mm,sim_conj_gs_mm_1,1,1.914,1,4.703
no_gap,R_1K6KGucq5uhaFzv,conj,mm,sim_conj_gs_mm_2,1,2.516,1,1.896
no_gap,R_1K6KGucq5uhaFzv,conj,mm,sim_conj_rd_mm_1,1,1.179,1,1.166
no_gap,R_1K6KGucq5uhaFzv,conj,mm,sim_conj_rd_mm_2,1,1.265,1,1.814
no_gap,R_1K6KGucq5uhaFzv,conj,mm,sim_conj_rs_mm_1,1,2.89,0,0.969
no_gap,R_1K6KGucq5uhaFzv,conj,mm,sim_conj_rs_mm_2,1,1.618,1,1.329
no_gap,R_1K71a7Ou0dd9RDl,conj,m,sim_conj_gd_m_1,1,0.816,1,1.349
no_gap,R_1K71a7Ou0dd9RDl,conj,m,sim_conj_gd_m_2,1,1.395,1,0.993
no_gap,R_1K71a7Ou0dd9RDl,conj,m,sim_conj_gs_m_1,1,0.827,1,0.966
no_gap,R_1K71a7Ou0dd9RDl,conj,m,sim_conj_gs_m_2,0,0.942,1,0.794
no_gap,R_1K71a7Ou0dd9RDl,conj,m,sim_conj_rd_m_1,1,1.23,1,0.649
no_gap,R_1K71a7Ou0dd9RDl,conj,m,sim_conj_rd_m_2,1,0.732,1,1.08
no_gap,R_1K71a7Ou0dd9RDl,conj,m,sim_conj_rs_m_1,1,0.86,1,2.149
no_gap,R_1K71a7Ou0dd9RDl,conj,m,sim_conj_rs_m_2,1,0.635,1,1.12
no_gap,R_1K71a7Ou0dd9RDl,conj,mm,sim_conj_gd_mm_1,1,0.791,1,1.619
no_gap,R_1K71a7Ou0dd9RDl,conj,mm,sim_conj_gd_mm_2,1,1.286,1,1.267
no_gap,R_1K71a7Ou0dd9RDl,conj,mm,sim_conj_gs_mm_1,1,0.712,1,1.53
no_gap,R_1K71a7Ou0dd9RDl,conj,mm,sim_conj_gs_mm_2,1,0.677,1,0.938
no_gap,R_1K71a7Ou0dd9RDl,conj,mm,sim_conj_rd_mm_1,1,1.307,1,0.809
no_gap,R_1K71a7Ou0dd9RDl,conj,mm,sim_conj_rd_mm_2,1,0.793,1,0.965
no_gap,R_1K71a7Ou0dd9RDl,conj,mm,sim_conj_rs_mm_1,1,0.976,1,1.612
no_gap,R_1K71a7Ou0dd9RDl,conj,mm,sim_conj_rs_mm_2,1,1.132,1,1.221
gap,R_1KkDDjZQonL8jXf,conj,m,sim_conj_gd_m_1,1,1.067,1,1.227
gap,R_1KkDDjZQonL8jXf,conj,m,sim_conj_gd_m_2,1,1.544,1,2.036
gap,R_1KkDDjZQonL8jXf,conj,m,sim_conj_gs_m_1,1,1.194,1,1.331
gap,R_1KkDDjZQonL8jXf,conj,m,sim_conj_gs_m_2,1,0.892,1,1.366
gap,R_1KkDDjZQonL8jXf,conj,m,sim_conj_rd_m_1,1,1.231,1,1.65
gap,R_1KkDDjZQonL8jXf,conj,m,sim_conj_rd_m_2,1,1.465,1,1.096
gap,R_1KkDDjZQonL8jXf,conj,m,sim_conj_rs_m_1,1,1.66,1,1.768
gap,R_1KkDDjZQonL8jXf,conj,m,sim_conj_rs_m_2,1,0.95,1,1.946
gap,R_1KkDDjZQonL8jXf,conj,mm,sim_conj_gd_mm_1,0,0.862,1,1.855
gap,R_1KkDDjZQonL8jXf,conj,mm,sim_conj_gd_mm_2,1,7.323,1,1.502
gap,R_1KkDDjZQonL8jXf,conj,mm,sim_conj_gs_mm_1,1,2.018,1,0.89
gap,R_1KkDDjZQonL8jXf,conj,mm,sim_conj_gs_mm_2,1,1.074,0,2.896
gap,R_1KkDDjZQonL8jXf,conj,mm,sim_conj_rd_mm_1,1,0.813,1,0.732
gap,R_1KkDDjZQonL8jXf,conj,mm,sim_conj_rd_mm_2,1,1.156,0,2.535
gap,R_1KkDDjZQonL8jXf,conj,mm,sim_conj_rs_mm_1,1,1.227,1,1.244
gap,R_1KkDDjZQonL8jXf,conj,mm,sim_conj_rs_mm_2,1,0.9,0,8.789
no_gap,R_1KqDdYqdsxJyWIf,conj,m,sim_conj_gd_m_1,1,0.882,1,0.585
no_gap,R_1KqDdYqdsxJyWIf,conj,m,sim_conj_gd_m_2,1,0.935,1,0.542
no_gap,R_1KqDdYqdsxJyWIf,conj,m,sim_conj_gs_m_1,1,0.456,1,1.311
no_gap,R_1KqDdYqdsxJyWIf,conj,m,sim_conj_gs_m_2,1,0.549,1,0.699
no_gap,R_1KqDdYqdsxJyWIf,conj,m,sim_conj_rd_m_1,1,0.942,1,1.269
no_gap,R_1KqDdYqdsxJyWIf,conj,m,sim_conj_rd_m_2,1,0.744,1,0.763
no_gap,R_1KqDdYqdsxJyWIf,conj,m,sim_conj_rs_m_1,1,1.081,1,1.07
no_gap,R_1KqDdYqdsxJyWIf,conj,m,sim_conj_rs_m_2,1,0.473,1,0.527
no_gap,R_1KqDdYqdsxJyWIf,conj,mm,sim_conj_gd_mm_1,1,0.498,1,0.683
no_gap,R_1KqDdYqdsxJyWIf,conj,mm,sim_conj_gd_mm_2,1,0.547,1,0.657
no_gap,R_1KqDdYqdsxJyWIf,conj,mm,sim_conj_gs_mm_1,1,0.599,1,0.677
no_gap,R_1KqDdYqdsxJyWIf,conj,mm,sim_conj_gs_mm_2,1,0.731,1,0.62
no_gap,R_1KqDdYqdsxJyWIf,conj,mm,sim_conj_rd_mm_1,1,0.502,1,0.687
no_gap,R_1KqDdYqdsxJyWIf,conj,mm,sim_conj_rd_mm_2,1,0.955,0,0.683
no_gap,R_1KqDdYqdsxJyWIf,conj,mm,sim_conj_rs_mm_1,1,0.599,1,0.915
no_gap,R_1KqDdYqdsxJyWIf,conj,mm,sim_conj_rs_mm_2,1,0.594,1,0.906
gap,R_1lo8TnSLVLCPrMI,conj,m,sim_conj_gd_m_1,1,0.82,1,0.689
gap,R_1lo8TnSLVLCPrMI,conj,m,sim_conj_gd_m_2,1,0.832,1,1.011
gap,R_1lo8TnSLVLCPrMI,conj,m,sim_conj_gs_m_1,1,1.321,1,1.108
gap,R_1lo8TnSLVLCPrMI,conj,m,sim_conj_gs_m_2,1,1.6,0,0.983
gap,R_1lo8TnSLVLCPrMI,conj,m,sim_conj_rd_m_1,1,0.897,1,1.475
gap,R_1lo8TnSLVLCPrMI,conj,m,sim_conj_rd_m_2,1,0.821,1,1.142
gap,R_1lo8TnSLVLCPrMI,conj,m,sim_conj_rs_m_1,1,1.366,0,1.015
gap,R_1lo8TnSLVLCPrMI,conj,m,sim_conj_rs_m_2,1,0.756,0,0.989
gap,R_1lo8TnSLVLCPrMI,conj,mm,sim_conj_gd_mm_1,1,1.865,1,0.795
gap,R_1lo8TnSLVLCPrMI,conj,mm,sim_conj_gd_mm_2,1,0.755,1,0.838
gap,R_1lo8TnSLVLCPrMI,conj,mm,sim_conj_gs_mm_1,1,1.161,1,1.171
gap,R_1lo8TnSLVLCPrMI,conj,mm,sim_conj_gs_mm_2,1,0.866,1,0.976
gap,R_1lo8TnSLVLCPrMI,conj,mm,sim_conj_rd_mm_1,1,0.755,1,0.819
gap,R_1lo8TnSLVLCPrMI,conj,mm,sim_conj_rd_mm_2,1,0.801,1,1.016
gap,R_1lo8TnSLVLCPrMI,conj,mm,sim_conj_rs_mm_1,1,0.965,1,0.816
gap,R_1lo8TnSLVLCPrMI,conj,mm,sim_conj_rs_mm_2,0,0.754,0,0.697
no_gap,R_1LXmTvk5iLuGEaA,conj,m,sim_conj_gd_m_1,1,0.674,1,1.072
no_gap,R_1LXmTvk5iLuGEaA,conj,m,sim_conj_gd_m_2,1,0.613,1,0.812
no_gap,R_1LXmTvk5iLuGEaA,conj,m,sim_conj_gs_m_1,1,0.581,1,3.129
no_gap,R_1LXmTvk5iLuGEaA,conj,m,sim_conj_gs_m_2,1,0.445,1,0.612
no_gap,R_1LXmTvk5iLuGEaA,conj,m,sim_conj_rd_m_1,1,0.91,0,1.06
no_gap,R_1LXmTvk5iLuGEaA,conj,m,sim_conj_rd_m_2,1,1.041,1,0.655
no_gap,R_1LXmTvk5iLuGEaA,conj,m,sim_conj_rs_m_1,1,0.488,1,0.53
no_gap,R_1LXmTvk5iLuGEaA,conj,m,sim_conj_rs_m_2,1,0.776,1,0.575
no_gap,R_1LXmTvk5iLuGEaA,conj,mm,sim_conj_gd_mm_1,1,0.643,1,0.66
no_gap,R_1LXmTvk5iLuGEaA,conj,mm,sim_conj_gd_mm_2,1,0.631,1,0.607
no_gap,R_1LXmTvk5iLuGEaA,conj,mm,sim_conj_gs_mm_1,1,0.551,1,0.785
no_gap,R_1LXmTvk5iLuGEaA,conj,mm,sim_conj_gs_mm_2,1,0.571,1,0.495
no_gap,R_1LXmTvk5iLuGEaA,conj,mm,sim_conj_rd_mm_1,1,0.682,1,0.902
no_gap,R_1LXmTvk5iLuGEaA,conj,mm,sim_conj_rd_mm_2,1,0.583,1,0.73
no_gap,R_1LXmTvk5iLuGEaA,conj,mm,sim_conj_rs_mm_1,1,0.853,1,1.232
no_gap,R_1LXmTvk5iLuGEaA,conj,mm,sim_conj_rs_mm_2,1,0.704,1,0.753
no_gap,R_1lzzukvJq3atYiQ,conj,m,sim_conj_gd_m_1,1,1.057,1,0.502
no_gap,R_1lzzukvJq3atYiQ,conj,m,sim_conj_gd_m_2,1,0.51,1,0.612
no_gap,R_1lzzukvJq3atYiQ,conj,m,sim_conj_gs_m_1,1,0.735,1,0.515
no_gap,R_1lzzukvJq3atYiQ,conj,m,sim_conj_gs_m_2,1,0.681,1,0.482
no_gap,R_1lzzukvJq3atYiQ,conj,m,sim_conj_rd_m_1,1,0.38,0,0.457
no_gap,R_1lzzukvJq3atYiQ,conj,m,sim_conj_rd_m_2,1,0.927,1,0.623
no_gap,R_1lzzukvJq3atYiQ,conj,m,sim_conj_rs_m_1,1,0.641,0,0.924
no_gap,R_1lzzukvJq3atYiQ,conj,m,sim_conj_rs_m_2,1,0.684,1,0.416
no_gap,R_1lzzukvJq3atYiQ,conj,mm,sim_conj_gd_mm_1,1,0.71,1,0.937
no_gap,R_1lzzukvJq3atYiQ,conj,mm,sim_conj_gd_mm_2,1,0.495,1,0.714
no_gap,R_1lzzukvJq3atYiQ,conj,mm,sim_conj_gs_mm_1,1,0.581,1,0.9
no_gap,R_1lzzukvJq3atYiQ,conj,mm,sim_conj_gs_mm_2,1,0.469,1,0.604
no_gap,R_1lzzukvJq3atYiQ,conj,mm,sim_conj_rd_mm_1,1,0.69,1,0.323
no_gap,R_1lzzukvJq3atYiQ,conj,mm,sim_conj_rd_mm_2,1,0.697,0,0.522
no_gap,R_1lzzukvJq3atYiQ,conj,mm,sim_conj_rs_mm_1,1,0.723,0,0.419
no_gap,R_1lzzukvJq3atYiQ,conj,mm,sim_conj_rs_mm_2,1,0.466,1,0.893
no_gap,R_1mC4cBupoC4tHV4,conj,m,sim_conj_gd_m_1,1,0.984,1,1.117
no_gap,R_1mC4cBupoC4tHV4,conj,m,sim_conj_gd_m_2,1,0.45,1,0.721
no_gap,R_1mC4cBupoC4tHV4,conj,m,sim_conj_gs_m_1,1,0.508,1,0.573
no_gap,R_1mC4cBupoC4tHV4,conj,m,sim_conj_gs_m_2,1,0.469,1,1.737
no_gap,R_1mC4cBupoC4tHV4,conj,m,sim_conj_rd_m_1,1,0.787,1,0.661
no_gap,R_1mC4cBupoC4tHV4,conj,m,sim_conj_rd_m_2,1,0.923,1,0.881
no_gap,R_1mC4cBupoC4tHV4,conj,m,sim_conj_rs_m_1,1,0.775,1,0.721
no_gap,R_1mC4cBupoC4tHV4,conj,m,sim_conj_rs_m_2,1,1.277,1,0.512
no_gap,R_1mC4cBupoC4tHV4,conj,mm,sim_conj_gd_mm_1,1,0.631,1,0.847
no_gap,R_1mC4cBupoC4tHV4,conj,mm,sim_conj_gd_mm_2,1,0.798,1,1.144
no_gap,R_1mC4cBupoC4tHV4,conj,mm,sim_conj_gs_mm_1,1,0.504,1,0.785
no_gap,R_1mC4cBupoC4tHV4,conj,mm,sim_conj_gs_mm_2,1,0.663,1,0.745
no_gap,R_1mC4cBupoC4tHV4,conj,mm,sim_conj_rd_mm_1,1,0.769,1,0.705
no_gap,R_1mC4cBupoC4tHV4,conj,mm,sim_conj_rd_mm_2,1,0.822,1,0.852
no_gap,R_1mC4cBupoC4tHV4,conj,mm,sim_conj_rs_mm_1,1,0.711,1,0.538
no_gap,R_1mC4cBupoC4tHV4,conj,mm,sim_conj_rs_mm_2,1,0.647,1,1.167
no_gap,R_1mIULYprIrOv92G,conj,m,sim_conj_gd_m_1,1,0.623,1,0.759
no_gap,R_1mIULYprIrOv92G,conj,m,sim_conj_gd_m_2,1,0.455,1,0.495
no_gap,R_1mIULYprIrOv92G,conj,m,sim_conj_gs_m_1,1,0.498,1,0.823
no_gap,R_1mIULYprIrOv92G,conj,m,sim_conj_gs_m_2,1,0.478,1,0.995
no_gap,R_1mIULYprIrOv92G,conj,m,sim_conj_rd_m_1,1,0.904,1,0.512
no_gap,R_1mIULYprIrOv92G,conj,m,sim_conj_rd_m_2,1,0.476,1,1.037
no_gap,R_1mIULYprIrOv92G,conj,m,sim_conj_rs_m_1,1,0.529,1,0.492
no_gap,R_1mIULYprIrOv92G,conj,m,sim_conj_rs_m_2,1,0.401,1,0.74
no_gap,R_1mIULYprIrOv92G,conj,mm,sim_conj_gd_mm_1,1,0.719,1,0.67
no_gap,R_1mIULYprIrOv92G,conj,mm,sim_conj_gd_mm_2,1,0.588,1,0.687
no_gap,R_1mIULYprIrOv92G,conj,mm,sim_conj_gs_mm_1,1,0.49,1,0.778
no_gap,R_1mIULYprIrOv92G,conj,mm,sim_conj_gs_mm_2,1,0.566,1,0.791
no_gap,R_1mIULYprIrOv92G,conj,mm,sim_conj_rd_mm_1,1,0.541,0,1.224
no_gap,R_1mIULYprIrOv92G,conj,mm,sim_conj_rd_mm_2,1,0.442,1,0.809
no_gap,R_1mIULYprIrOv92G,conj,mm,sim_conj_rs_mm_1,1,0.952,1,0.808
no_gap,R_1mIULYprIrOv92G,conj,mm,sim_conj_rs_mm_2,1,0.587,1,0.66
no_gap,R_1mmFOe3uknXraci,conj,m,sim_conj_gd_m_1,1,1.149,1,0.802
no_gap,R_1mmFOe3uknXraci,conj,m,sim_conj_gd_m_2,1,1.248,0,2.354
no_gap,R_1mmFOe3uknXraci,conj,m,sim_conj_gs_m_1,1,0.918,1,2.034
no_gap,R_1mmFOe3uknXraci,conj,m,sim_conj_gs_m_2,1,1.218,1,8.296
no_gap,R_1mmFOe3uknXraci,conj,m,sim_conj_rd_m_1,1,1.617,1,1.059
no_gap,R_1mmFOe3uknXraci,conj,m,sim_conj_rd_m_2,1,0.767,1,1.23
no_gap,R_1mmFOe3uknXraci,conj,m,sim_conj_rs_m_1,1,0.947,1,1.148
no_gap,R_1mmFOe3uknXraci,conj,m,sim_conj_rs_m_2,1,1.525,1,0.814
no_gap,R_1mmFOe3uknXraci,conj,mm,sim_conj_gd_mm_1,1,1.077,1,2.494
no_gap,R_1mmFOe3uknXraci,conj,mm,sim_conj_gd_mm_2,1,1.192,1,0.885
no_gap,R_1mmFOe3uknXraci,conj,mm,sim_conj_gs_mm_1,1,1.23,1,0.799
no_gap,R_1mmFOe3uknXraci,conj,mm,sim_conj_gs_mm_2,1,0.965,1,0.996
no_gap,R_1mmFOe3uknXraci,conj,mm,sim_conj_rd_mm_1,1,1.236,1,2.52
no_gap,R_1mmFOe3uknXraci,conj,mm,sim_conj_rd_mm_2,1,0.898,1,0.837
no_gap,R_1mmFOe3uknXraci,conj,mm,sim_conj_rs_mm_1,1,1.503,1,2.228
no_gap,R_1mmFOe3uknXraci,conj,mm,sim_conj_rs_mm_2,1,0.797,1,2.125
gap,R_1Nex25Z07JEPqPT,conj,m,sim_conj_gd_m_1,1,0.952,1,0.77
gap,R_1Nex25Z07JEPqPT,conj,m,sim_conj_gd_m_2,1,1.123,1,0.885
gap,R_1Nex25Z07JEPqPT,conj,m,sim_conj_gs_m_1,1,0.647,1,0.777
gap,R_1Nex25Z07JEPqPT,conj,m,sim_conj_gs_m_2,1,32.276,1,0.717
gap,R_1Nex25Z07JEPqPT,conj,m,sim_conj_rd_m_1,1,1.75,1,1.425
gap,R_1Nex25Z07JEPqPT,conj,m,sim_conj_rd_m_2,1,0.676,1,1
gap,R_1Nex25Z07JEPqPT,conj,m,sim_conj_rs_m_1,1,0.669,1,0.624
gap,R_1Nex25Z07JEPqPT,conj,m,sim_conj_rs_m_2,1,1.2,1,0.812
gap,R_1Nex25Z07JEPqPT,conj,mm,sim_conj_gd_mm_1,1,0.951,1,1.072
gap,R_1Nex25Z07JEPqPT,conj,mm,sim_conj_gd_mm_2,1,0.695,1,0.858
gap,R_1Nex25Z07JEPqPT,conj,mm,sim_conj_gs_mm_1,1,0.925,1,0.761
gap,R_1Nex25Z07JEPqPT,conj,mm,sim_conj_gs_mm_2,1,0.708,1,0.597
gap,R_1Nex25Z07JEPqPT,conj,mm,sim_conj_rd_mm_1,1,0.857,1,0.679
gap,R_1Nex25Z07JEPqPT,conj,mm,sim_conj_rd_mm_2,1,0.752,1,0.684
gap,R_1Nex25Z07JEPqPT,conj,mm,sim_conj_rs_mm_1,1,0.735,1,0.905
gap,R_1Nex25Z07JEPqPT,conj,mm,sim_conj_rs_mm_2,1,0.773,1,0.91
no_gap,R_1nOO1BGaTXG8VNZ,conj,m,sim_conj_gd_m_1,1,0.722,1,0.756
no_gap,R_1nOO1BGaTXG8VNZ,conj,m,sim_conj_gd_m_2,1,1.418,1,0.648
no_gap,R_1nOO1BGaTXG8VNZ,conj,m,sim_conj_gs_m_1,1,0.59,1,0.889
no_gap,R_1nOO1BGaTXG8VNZ,conj,m,sim_conj_gs_m_2,1,1.769,1,0.583
no_gap,R_1nOO1BGaTXG8VNZ,conj,m,sim_conj_rd_m_1,1,0.852,1,0.934
no_gap,R_1nOO1BGaTXG8VNZ,conj,m,sim_conj_rd_m_2,1,0.959,1,0.73
no_gap,R_1nOO1BGaTXG8VNZ,conj,m,sim_conj_rs_m_1,1,1.217,0,0.811
no_gap,R_1nOO1BGaTXG8VNZ,conj,m,sim_conj_rs_m_2,1,1.12,1,1.084
no_gap,R_1nOO1BGaTXG8VNZ,conj,mm,sim_conj_gd_mm_1,0,65.547,1,0.849
no_gap,R_1nOO1BGaTXG8VNZ,conj,mm,sim_conj_gd_mm_2,1,0.751,1,1.027
no_gap,R_1nOO1BGaTXG8VNZ,conj,mm,sim_conj_gs_mm_1,1,3.261,1,1.087
no_gap,R_1nOO1BGaTXG8VNZ,conj,mm,sim_conj_gs_mm_2,1,1.157,1,1.61
no_gap,R_1nOO1BGaTXG8VNZ,conj,mm,sim_conj_rd_mm_1,1,9.836,1,0.801
no_gap,R_1nOO1BGaTXG8VNZ,conj,mm,sim_conj_rd_mm_2,1,1.163,1,0.981
no_gap,R_1nOO1BGaTXG8VNZ,conj,mm,sim_conj_rs_mm_1,1,2.346,1,2.069
no_gap,R_1nOO1BGaTXG8VNZ,conj,mm,sim_conj_rs_mm_2,1,13.609,1,0.939
no_gap,R_1nOQ0qbgqQcSRz6,conj,m,sim_conj_gd_m_1,1,0.5,1,0.902
no_gap,R_1nOQ0qbgqQcSRz6,conj,m,sim_conj_gd_m_2,1,0.558,1,0.469
no_gap,R_1nOQ0qbgqQcSRz6,conj,m,sim_conj_gs_m_1,1,0.591,1,1.04
no_gap,R_1nOQ0qbgqQcSRz6,conj,m,sim_conj_gs_m_2,1,1.228,1,0.594
no_gap,R_1nOQ0qbgqQcSRz6,conj,m,sim_conj_rd_m_1,1,0.828,1,1.087
no_gap,R_1nOQ0qbgqQcSRz6,conj,m,sim_conj_rd_m_2,1,0.737,1,0.743
no_gap,R_1nOQ0qbgqQcSRz6,conj,m,sim_conj_rs_m_1,1,1.334,1,0.98
no_gap,R_1nOQ0qbgqQcSRz6,conj,m,sim_conj_rs_m_2,1,0.64,1,0.719
no_gap,R_1nOQ0qbgqQcSRz6,conj,mm,sim_conj_gd_mm_1,1,0.592,1,1.097
no_gap,R_1nOQ0qbgqQcSRz6,conj,mm,sim_conj_gd_mm_2,1,1.463,1,0.615
no_gap,R_1nOQ0qbgqQcSRz6,conj,mm,sim_conj_gs_mm_1,1,0.651,1,0.6
no_gap,R_1nOQ0qbgqQcSRz6,conj,mm,sim_conj_gs_mm_2,1,1.104,1,0.635
no_gap,R_1nOQ0qbgqQcSRz6,conj,mm,sim_conj_rd_mm_1,1,0.806,1,1.587
no_gap,R_1nOQ0qbgqQcSRz6,conj,mm,sim_conj_rd_mm_2,1,0.583,1,0.732
no_gap,R_1nOQ0qbgqQcSRz6,conj,mm,sim_conj_rs_mm_1,1,0.939,1,1.111
no_gap,R_1nOQ0qbgqQcSRz6,conj,mm,sim_conj_rs_mm_2,1,1.028,1,1.159
gap,R_1oAMtAsotlpba75,conj,m,sim_conj_gd_m_1,1,1.015,1,0.65
gap,R_1oAMtAsotlpba75,conj,m,sim_conj_gd_m_2,1,1.216,1,0.513
gap,R_1oAMtAsotlpba75,conj,m,sim_conj_gs_m_1,1,0.394,1,0.726
gap,R_1oAMtAsotlpba75,conj,m,sim_conj_gs_m_2,1,0.459,1,0.455
gap,R_1oAMtAsotlpba75,conj,m,sim_conj_rd_m_1,1,0.622,1,0.411
gap,R_1oAMtAsotlpba75,conj,m,sim_conj_rd_m_2,1,0.646,1,0.791
gap,R_1oAMtAsotlpba75,conj,m,sim_conj_rs_m_1,1,0.551,1,0.356
gap,R_1oAMtAsotlpba75,conj,m,sim_conj_rs_m_2,1,0.712,1,0.753
gap,R_1oAMtAsotlpba75,conj,mm,sim_conj_gd_mm_1,1,1.078,1,0.555
gap,R_1oAMtAsotlpba75,conj,mm,sim_conj_gd_mm_2,1,0.715,1,0.541
gap,R_1oAMtAsotlpba75,conj,mm,sim_conj_gs_mm_1,1,0.736,1,0.435
gap,R_1oAMtAsotlpba75,conj,mm,sim_conj_gs_mm_2,1,1.321,1,0.674
gap,R_1oAMtAsotlpba75,conj,mm,sim_conj_rd_mm_1,1,0.828,1,0.447
gap,R_1oAMtAsotlpba75,conj,mm,sim_conj_rd_mm_2,1,0.65,1,0.62
gap,R_1oAMtAsotlpba75,conj,mm,sim_conj_rs_mm_1,1,0.839,1,0.522
gap,R_1oAMtAsotlpba75,conj,mm,sim_conj_rs_mm_2,1,0.874,1,0.608
gap,R_1oBEFfxegvaFxqs,conj,m,sim_conj_gd_m_1,1,0.936,1,0.483
gap,R_1oBEFfxegvaFxqs,conj,m,sim_conj_gd_m_2,1,0.983,1,1.548
gap,R_1oBEFfxegvaFxqs,conj,m,sim_conj_gs_m_1,1,0.528,1,0.637
gap,R_1oBEFfxegvaFxqs,conj,m,sim_conj_gs_m_2,1,0.626,1,0.721
gap,R_1oBEFfxegvaFxqs,conj,m,sim_conj_rd_m_1,1,1.819,1,0.423
gap,R_1oBEFfxegvaFxqs,conj,m,sim_conj_rd_m_2,1,0.891,1,0.872
gap,R_1oBEFfxegvaFxqs,conj,m,sim_conj_rs_m_1,1,1.014,1,0.388
gap,R_1oBEFfxegvaFxqs,conj,m,sim_conj_rs_m_2,1,0.851,1,1.188
gap,R_1oBEFfxegvaFxqs,conj,mm,sim_conj_gd_mm_1,1,0.637,1,1.239
gap,R_1oBEFfxegvaFxqs,conj,mm,sim_conj_gd_mm_2,1,0.62,1,0.979
gap,R_1oBEFfxegvaFxqs,conj,mm,sim_conj_gs_mm_1,1,0.723,1,0.618
gap,R_1oBEFfxegvaFxqs,conj,mm,sim_conj_gs_mm_2,1,0.552,1,1.165
gap,R_1oBEFfxegvaFxqs,conj,mm,sim_conj_rd_mm_1,1,0.957,1,0.99
gap,R_1oBEFfxegvaFxqs,conj,mm,sim_conj_rd_mm_2,0,0.623,1,2.017
gap,R_1oBEFfxegvaFxqs,conj,mm,sim_conj_rs_mm_1,1,0.565,1,0.507
gap,R_1oBEFfxegvaFxqs,conj,mm,sim_conj_rs_mm_2,1,0.683,1,1.846
gap,R_1OE6gsnJdCYDJNp,conj,m,sim_conj_gd_m_1,1,2.745,1,0.887
gap,R_1OE6gsnJdCYDJNp,conj,m,sim_conj_gd_m_2,1,1.266,1,3.608
gap,R_1OE6gsnJdCYDJNp,conj,m,sim_conj_gs_m_1,1,0.943,1,1.209
gap,R_1OE6gsnJdCYDJNp,conj,m,sim_conj_gs_m_2,1,1.053,0,1.766
gap,R_1OE6gsnJdCYDJNp,conj,m,sim_conj_rd_m_1,1,2.691,1,3.448
gap,R_1OE6gsnJdCYDJNp,conj,m,sim_conj_rd_m_2,1,0.839,1,1.024
gap,R_1OE6gsnJdCYDJNp,conj,m,sim_conj_rs_m_1,1,88.323,1,1.011
gap,R_1OE6gsnJdCYDJNp,conj,m,sim_conj_rs_m_2,1,1.297,1,1.198
gap,R_1OE6gsnJdCYDJNp,conj,mm,sim_conj_gd_mm_1,1,1.558,1,1.06
gap,R_1OE6gsnJdCYDJNp,conj,mm,sim_conj_gd_mm_2,0,16.043,1,1.415
gap,R_1OE6gsnJdCYDJNp,conj,mm,sim_conj_gs_mm_1,1,0.999,0,1.004
gap,R_1OE6gsnJdCYDJNp,conj,mm,sim_conj_gs_mm_2,1,1.346,1,1.758
gap,R_1OE6gsnJdCYDJNp,conj,mm,sim_conj_rd_mm_1,1,0.866,1,1.171
gap,R_1OE6gsnJdCYDJNp,conj,mm,sim_conj_rd_mm_2,0,1.784,0,0.772
gap,R_1OE6gsnJdCYDJNp,conj,mm,sim_conj_rs_mm_1,1,1.003,1,0.75
gap,R_1OE6gsnJdCYDJNp,conj,mm,sim_conj_rs_mm_2,1,0.658,1,2.29
gap,R_1OJJIMbAOHmEsc6,conj,m,sim_conj_gd_m_1,1,0.753,1,0.593
gap,R_1OJJIMbAOHmEsc6,conj,m,sim_conj_gd_m_2,1,1.153,1,0.547
gap,R_1OJJIMbAOHmEsc6,conj,m,sim_conj_gs_m_1,1,0.648,0,0.762
gap,R_1OJJIMbAOHmEsc6,conj,m,sim_conj_gs_m_2,1,0.529,1,0.627
gap,R_1OJJIMbAOHmEsc6,conj,m,sim_conj_rd_m_1,1,0.584,1,0.702
gap,R_1OJJIMbAOHmEsc6,conj,m,sim_conj_rd_m_2,1,0.516,1,0.6
gap,R_1OJJIMbAOHmEsc6,conj,m,sim_conj_rs_m_1,0,0.812,1,0.522
gap,R_1OJJIMbAOHmEsc6,conj,m,sim_conj_rs_m_2,1,1.189,1,0.516
gap,R_1OJJIMbAOHmEsc6,conj,mm,sim_conj_gd_mm_1,1,0.503,1,0.565
gap,R_1OJJIMbAOHmEsc6,conj,mm,sim_conj_gd_mm_2,1,0.48,1,0.48
gap,R_1OJJIMbAOHmEsc6,conj,mm,sim_conj_gs_mm_1,1,0.806,1,0.416
gap,R_1OJJIMbAOHmEsc6,conj,mm,sim_conj_gs_mm_2,0,0.998,1,0.639
gap,R_1OJJIMbAOHmEsc6,conj,mm,sim_conj_rd_mm_1,1,0.883,1,0.51
gap,R_1OJJIMbAOHmEsc6,conj,mm,sim_conj_rd_mm_2,1,0.727,1,0.71
gap,R_1OJJIMbAOHmEsc6,conj,mm,sim_conj_rs_mm_1,1,0.532,1,0.584
gap,R_1OJJIMbAOHmEsc6,conj,mm,sim_conj_rs_mm_2,1,0.903,1,0.652
no_gap,R_1OkOyQCupky29ws,conj,m,sim_conj_gd_m_1,1,1.371,1,1.185
no_gap,R_1OkOyQCupky29ws,conj,m,sim_conj_gd_m_2,0,0.616,1,0.441
no_gap,R_1OkOyQCupky29ws,conj,m,sim_conj_gs_m_1,1,0.795,1,0.656
no_gap,R_1OkOyQCupky29ws,conj,m,sim_conj_gs_m_2,1,0.412,1,0.794
no_gap,R_1OkOyQCupky29ws,conj,m,sim_conj_rd_m_1,1,0.4,1,0.618
no_gap,R_1OkOyQCupky29ws,conj,m,sim_conj_rd_m_2,1,0.713,1,0.69
no_gap,R_1OkOyQCupky29ws,conj,m,sim_conj_rs_m_1,1,0.428,1,0.443
no_gap,R_1OkOyQCupky29ws,conj,m,sim_conj_rs_m_2,1,0.401,1,0.494
no_gap,R_1OkOyQCupky29ws,conj,mm,sim_conj_gd_mm_1,1,0.555,1,0.648
no_gap,R_1OkOyQCupky29ws,conj,mm,sim_conj_gd_mm_2,1,15.221,1,1.399
no_gap,R_1OkOyQCupky29ws,conj,mm,sim_conj_gs_mm_1,1,3.961,1,0.896
no_gap,R_1OkOyQCupky29ws,conj,mm,sim_conj_gs_mm_2,1,1.731,1,0.576
no_gap,R_1OkOyQCupky29ws,conj,mm,sim_conj_rd_mm_1,1,0.627,0,0.768
no_gap,R_1OkOyQCupky29ws,conj,mm,sim_conj_rd_mm_2,1,1.222,0,0.653
no_gap,R_1OkOyQCupky29ws,conj,mm,sim_conj_rs_mm_1,1,0.921,1,1.234
no_gap,R_1OkOyQCupky29ws,conj,mm,sim_conj_rs_mm_2,1,0.489,1,0.539
gap,R_1onlnd0PSlmh0kP,conj,m,sim_conj_gd_m_1,1,0.908,1,1.293
gap,R_1onlnd0PSlmh0kP,conj,m,sim_conj_gd_m_2,1,0.946,1,1.505
gap,R_1onlnd0PSlmh0kP,conj,m,sim_conj_gs_m_1,1,0.734,1,0.78
gap,R_1onlnd0PSlmh0kP,conj,m,sim_conj_gs_m_2,1,0.81,1,1.458
gap,R_1onlnd0PSlmh0kP,conj,m,sim_conj_rd_m_1,1,1.028,1,1.042
gap,R_1onlnd0PSlmh0kP,conj,m,sim_conj_rd_m_2,1,0.527,1,1.39
gap,R_1onlnd0PSlmh0kP,conj,m,sim_conj_rs_m_1,1,0.75,1,1.176
gap,R_1onlnd0PSlmh0kP,conj,m,sim_conj_rs_m_2,1,0.831,1,1.418
gap,R_1onlnd0PSlmh0kP,conj,mm,sim_conj_gd_mm_1,1,5.727,1,2.234
gap,R_1onlnd0PSlmh0kP,conj,mm,sim_conj_gd_mm_2,1,0.701,1,2.088
gap,R_1onlnd0PSlmh0kP,conj,mm,sim_conj_gs_mm_1,1,1.302,1,1.462
gap,R_1onlnd0PSlmh0kP,conj,mm,sim_conj_gs_mm_2,1,1.321,1,1.039
gap,R_1onlnd0PSlmh0kP,conj,mm,sim_conj_rd_mm_1,1,1.814,1,1.576
gap,R_1onlnd0PSlmh0kP,conj,mm,sim_conj_rd_mm_2,1,0.81,1,2.88
gap,R_1onlnd0PSlmh0kP,conj,mm,sim_conj_rs_mm_1,1,1.186,1,1.087
gap,R_1onlnd0PSlmh0kP,conj,mm,sim_conj_rs_mm_2,1,0.569,0,1.069
no_gap,R_1OVnUIQoDvuoLoa,conj,m,sim_conj_gd_m_1,1,0.694,1,2.966
no_gap,R_1OVnUIQoDvuoLoa,conj,m,sim_conj_gd_m_2,1,1.683,1,1.719
no_gap,R_1OVnUIQoDvuoLoa,conj,m,sim_conj_gs_m_1,1,0.779,1,1.595
no_gap,R_1OVnUIQoDvuoLoa,conj,m,sim_conj_gs_m_2,1,0.593,1,0.982
no_gap,R_1OVnUIQoDvuoLoa,conj,m,sim_conj_rd_m_1,1,0.614,1,0.995
no_gap,R_1OVnUIQoDvuoLoa,conj,m,sim_conj_rd_m_2,1,1.123,1,1.421
no_gap,R_1OVnUIQoDvuoLoa,conj,m,sim_conj_rs_m_1,1,1.52,0,0.973
no_gap,R_1OVnUIQoDvuoLoa,conj,m,sim_conj_rs_m_2,1,0.835,1,1.087
no_gap,R_1OVnUIQoDvuoLoa,conj,mm,sim_conj_gd_mm_1,1,1.174,1,1.25
no_gap,R_1OVnUIQoDvuoLoa,conj,mm,sim_conj_gd_mm_2,1,0.998,1,1.301
no_gap,R_1OVnUIQoDvuoLoa,conj,mm,sim_conj_gs_mm_1,1,0.432,1,1.116
no_gap,R_1OVnUIQoDvuoLoa,conj,mm,sim_conj_gs_mm_2,1,0.777,1,1.608
no_gap,R_1OVnUIQoDvuoLoa,conj,mm,sim_conj_rd_mm_1,1,2.732,1,1.459
no_gap,R_1OVnUIQoDvuoLoa,conj,mm,sim_conj_rd_mm_2,1,0.541,1,1.093
no_gap,R_1OVnUIQoDvuoLoa,conj,mm,sim_conj_rs_mm_1,1,0.666,1,1.66
no_gap,R_1OVnUIQoDvuoLoa,conj,mm,sim_conj_rs_mm_2,1,1.323,1,1.792
gap,R_1Oy5gti2oOMkrmx,conj,m,sim_conj_gd_m_1,1,1.1,1,1.376
gap,R_1Oy5gti2oOMkrmx,conj,m,sim_conj_gd_m_2,1,2.091,1,0.89
gap,R_1Oy5gti2oOMkrmx,conj,m,sim_conj_gs_m_1,1,0.669,1,0.822
gap,R_1Oy5gti2oOMkrmx,conj,m,sim_conj_gs_m_2,1,0.876,1,0.835
gap,R_1Oy5gti2oOMkrmx,conj,m,sim_conj_rd_m_1,0,5.865,1,0.653
gap,R_1Oy5gti2oOMkrmx,conj,m,sim_conj_rd_m_2,1,0.628,1,0.861
gap,R_1Oy5gti2oOMkrmx,conj,m,sim_conj_rs_m_1,1,1.524,1,1.25
gap,R_1Oy5gti2oOMkrmx,conj,m,sim_conj_rs_m_2,1,1.539,1,0.674
gap,R_1Oy5gti2oOMkrmx,conj,mm,sim_conj_gd_mm_1,1,1.305,1,0.768
gap,R_1Oy5gti2oOMkrmx,conj,mm,sim_conj_gd_mm_2,1,1.567,1,0.941
gap,R_1Oy5gti2oOMkrmx,conj,mm,sim_conj_gs_mm_1,1,1.013,1,1.158
gap,R_1Oy5gti2oOMkrmx,conj,mm,sim_conj_gs_mm_2,1,5.26,1,1.439
gap,R_1Oy5gti2oOMkrmx,conj,mm,sim_conj_rd_mm_1,1,0.949,1,1.312
gap,R_1Oy5gti2oOMkrmx,conj,mm,sim_conj_rd_mm_2,1,2.719,1,1.192
gap,R_1Oy5gti2oOMkrmx,conj,mm,sim_conj_rs_mm_1,1,1.362,1,0.745
gap,R_1Oy5gti2oOMkrmx,conj,mm,sim_conj_rs_mm_2,1,0.631,1,1.069
no_gap,R_1PemspRhIIq93Jq,conj,m,sim_conj_gd_m_1,1,1.47,0,1.741
no_gap,R_1PemspRhIIq93Jq,conj,m,sim_conj_gd_m_2,1,1.326,1,1.186
no_gap,R_1PemspRhIIq93Jq,conj,m,sim_conj_gs_m_1,1,1.751,1,1.758
no_gap,R_1PemspRhIIq93Jq,conj,m,sim_conj_gs_m_2,1,3.44,1,2.548
no_gap,R_1PemspRhIIq93Jq,conj,m,sim_conj_rd_m_1,1,1.447,1,1.204
no_gap,R_1PemspRhIIq93Jq,conj,m,sim_conj_rd_m_2,1,1.411,1,1.222
no_gap,R_1PemspRhIIq93Jq,conj,m,sim_conj_rs_m_1,1,1.68,1,3.775
no_gap,R_1PemspRhIIq93Jq,conj,m,sim_conj_rs_m_2,1,1.192,1,3.177
no_gap,R_1PemspRhIIq93Jq,conj,mm,sim_conj_gd_mm_1,1,1.665,1,1.282
no_gap,R_1PemspRhIIq93Jq,conj,mm,sim_conj_gd_mm_2,1,1.281,1,2.191
no_gap,R_1PemspRhIIq93Jq,conj,mm,sim_conj_gs_mm_1,1,1.373,1,1.249
no_gap,R_1PemspRhIIq93Jq,conj,mm,sim_conj_gs_mm_2,1,5.762,0,2.36
no_gap,R_1PemspRhIIq93Jq,conj,mm,sim_conj_rd_mm_1,1,1.475,1,2.239
no_gap,R_1PemspRhIIq93Jq,conj,mm,sim_conj_rd_mm_2,1,1.384,1,1.468
no_gap,R_1PemspRhIIq93Jq,conj,mm,sim_conj_rs_mm_1,1,1.783,1,1.687
no_gap,R_1PemspRhIIq93Jq,conj,mm,sim_conj_rs_mm_2,1,2.851,1,3.08
gap,R_1pJPjmN0ZA5yTy2,conj,m,sim_conj_gd_m_1,1,1.299,1,1.432
gap,R_1pJPjmN0ZA5yTy2,conj,m,sim_conj_gd_m_2,1,0.726,1,1.298
gap,R_1pJPjmN0ZA5yTy2,conj,m,sim_conj_gs_m_1,1,1.768,1,0.976
gap,R_1pJPjmN0ZA5yTy2,conj,m,sim_conj_gs_m_2,1,2.707,1,1.867
gap,R_1pJPjmN0ZA5yTy2,conj,m,sim_conj_rd_m_1,1,1.558,1,0.768
gap,R_1pJPjmN0ZA5yTy2,conj,m,sim_conj_rd_m_2,1,1.522,1,1.403
gap,R_1pJPjmN0ZA5yTy2,conj,m,sim_conj_rs_m_1,1,1.993,1,0.496
gap,R_1pJPjmN0ZA5yTy2,conj,m,sim_conj_rs_m_2,1,1.696,1,2.024
gap,R_1pJPjmN0ZA5yTy2,conj,mm,sim_conj_gd_mm_1,1,2.099,0,1.09
gap,R_1pJPjmN0ZA5yTy2,conj,mm,sim_conj_gd_mm_2,1,2.392,1,2.37
gap,R_1pJPjmN0ZA5yTy2,conj,mm,sim_conj_gs_mm_1,1,1.988,0,1.091
gap,R_1pJPjmN0ZA5yTy2,conj,mm,sim_conj_gs_mm_2,0,2.042,1,1.691
gap,R_1pJPjmN0ZA5yTy2,conj,mm,sim_conj_rd_mm_1,1,1.486,1,1.479
gap,R_1pJPjmN0ZA5yTy2,conj,mm,sim_conj_rd_mm_2,1,1.857,1,1.96
gap,R_1pJPjmN0ZA5yTy2,conj,mm,sim_conj_rs_mm_1,1,2.408,1,0.617
gap,R_1pJPjmN0ZA5yTy2,conj,mm,sim_conj_rs_mm_2,1,1.933,1,0.868
no_gap,R_1pMrEEZMbPml0WU,conj,m,sim_conj_gd_m_1,1,0.643,1,0.857
no_gap,R_1pMrEEZMbPml0WU,conj,m,sim_conj_gd_m_2,1,0.424,1,0.566
no_gap,R_1pMrEEZMbPml0WU,conj,m,sim_conj_gs_m_1,1,0.6,1,0.408
no_gap,R_1pMrEEZMbPml0WU,conj,m,sim_conj_gs_m_2,0,0.496,1,1.021
no_gap,R_1pMrEEZMbPml0WU,conj,m,sim_conj_rd_m_1,1,0.537,1,1.409
no_gap,R_1pMrEEZMbPml0WU,conj,m,sim_conj_rd_m_2,1,0.878,1,0.788
no_gap,R_1pMrEEZMbPml0WU,conj,m,sim_conj_rs_m_1,1,0.444,1,0.431
no_gap,R_1pMrEEZMbPml0WU,conj,m,sim_conj_rs_m_2,1,0.739,1,0.863
no_gap,R_1pMrEEZMbPml0WU,conj,mm,sim_conj_gd_mm_1,1,1.165,1,0.891
no_gap,R_1pMrEEZMbPml0WU,conj,mm,sim_conj_gd_mm_2,1,0.791,1,0.51
no_gap,R_1pMrEEZMbPml0WU,conj,mm,sim_conj_gs_mm_1,1,0.765,1,0.957
no_gap,R_1pMrEEZMbPml0WU,conj,mm,sim_conj_gs_mm_2,1,0.435,1,0.683
no_gap,R_1pMrEEZMbPml0WU,conj,mm,sim_conj_rd_mm_1,1,0.952,1,1.001
no_gap,R_1pMrEEZMbPml0WU,conj,mm,sim_conj_rd_mm_2,1,0.547,1,0.501
no_gap,R_1pMrEEZMbPml0WU,conj,mm,sim_conj_rs_mm_1,1,0.578,1,0.784
no_gap,R_1pMrEEZMbPml0WU,conj,mm,sim_conj_rs_mm_2,1,0.511,1,0.507
gap,R_1ptx896QKfU4151,conj,m,sim_conj_gd_m_1,1,0.903,1,1.635
gap,R_1ptx896QKfU4151,conj,m,sim_conj_gd_m_2,1,1.533,1,0.817
gap,R_1ptx896QKfU4151,conj,m,sim_conj_gs_m_1,1,0.706,0,1.076
gap,R_1ptx896QKfU4151,conj,m,sim_conj_gs_m_2,1,0.883,1,0.666
gap,R_1ptx896QKfU4151,conj,m,sim_conj_rd_m_1,1,2.032,1,0.84
gap,R_1ptx896QKfU4151,conj,m,sim_conj_rd_m_2,0,1.47,1,0.723
gap,R_1ptx896QKfU4151,conj,m,sim_conj_rs_m_1,1,0.935,1,0.836
gap,R_1ptx896QKfU4151,conj,m,sim_conj_rs_m_2,1,1.236,1,0.469
gap,R_1ptx896QKfU4151,conj,mm,sim_conj_gd_mm_1,1,1.006,1,1.355
gap,R_1ptx896QKfU4151,conj,mm,sim_conj_gd_mm_2,1,0.946,1,1.102
gap,R_1ptx896QKfU4151,conj,mm,sim_conj_gs_mm_1,1,0.68,1,0.696
gap,R_1ptx896QKfU4151,conj,mm,sim_conj_gs_mm_2,1,0.873,1,0.408
gap,R_1ptx896QKfU4151,conj,mm,sim_conj_rd_mm_1,0,0.844,1,1.151
gap,R_1ptx896QKfU4151,conj,mm,sim_conj_rd_mm_2,1,0.71,1,0.739
gap,R_1ptx896QKfU4151,conj,mm,sim_conj_rs_mm_1,0,1.239,1,0.868
gap,R_1ptx896QKfU4151,conj,mm,sim_conj_rs_mm_2,0,2.928,1,1.585
no_gap,R_1pukYYnbpsfMrZv,conj,m,sim_conj_gd_m_1,1,1.135,1,0.489
no_gap,R_1pukYYnbpsfMrZv,conj,m,sim_conj_gd_m_2,1,0.96,1,0.817
no_gap,R_1pukYYnbpsfMrZv,conj,m,sim_conj_gs_m_1,1,0.656,1,0.46
no_gap,R_1pukYYnbpsfMrZv,conj,m,sim_conj_gs_m_2,1,0.489,1,0.75
no_gap,R_1pukYYnbpsfMrZv,conj,m,sim_conj_rd_m_1,1,0.576,1,0.761
no_gap,R_1pukYYnbpsfMrZv,conj,m,sim_conj_rd_m_2,1,0.65,1,0.755
no_gap,R_1pukYYnbpsfMrZv,conj,m,sim_conj_rs_m_1,1,0.663,1,0.456
no_gap,R_1pukYYnbpsfMrZv,conj,m,sim_conj_rs_m_2,1,0.652,1,0.683
no_gap,R_1pukYYnbpsfMrZv,conj,mm,sim_conj_gd_mm_1,1,4.128,1,0.688
no_gap,R_1pukYYnbpsfMrZv,conj,mm,sim_conj_gd_mm_2,1,0.75,1,0.618
no_gap,R_1pukYYnbpsfMrZv,conj,mm,sim_conj_gs_mm_1,1,0.856,1,0.833
no_gap,R_1pukYYnbpsfMrZv,conj,mm,sim_conj_gs_mm_2,1,0.607,1,0.795
no_gap,R_1pukYYnbpsfMrZv,conj,mm,sim_conj_rd_mm_1,1,0.732,1,0.741
no_gap,R_1pukYYnbpsfMrZv,conj,mm,sim_conj_rd_mm_2,1,0.695,1,0.941
no_gap,R_1pukYYnbpsfMrZv,conj,mm,sim_conj_rs_mm_1,1,0.788,1,0.534
no_gap,R_1pukYYnbpsfMrZv,conj,mm,sim_conj_rs_mm_2,1,0.544,1,0.731
no_gap,R_1PXVhaM73VwX7i7,conj,m,sim_conj_gd_m_1,1,0.402,1,0.365
no_gap,R_1PXVhaM73VwX7i7,conj,m,sim_conj_gd_m_2,1,0.496,1,0.597
no_gap,R_1PXVhaM73VwX7i7,conj,m,sim_conj_gs_m_1,1,0.372,1,0.429
no_gap,R_1PXVhaM73VwX7i7,conj,m,sim_conj_gs_m_2,1,0.412,1,0.476
no_gap,R_1PXVhaM73VwX7i7,conj,m,sim_conj_rd_m_1,1,0.361,1,0.435
no_gap,R_1PXVhaM73VwX7i7,conj,m,sim_conj_rd_m_2,1,0.377,1,0.395
no_gap,R_1PXVhaM73VwX7i7,conj,m,sim_conj_rs_m_1,1,0.455,1,0.55
no_gap,R_1PXVhaM73VwX7i7,conj,m,sim_conj_rs_m_2,1,0.508,1,0.389
no_gap,R_1PXVhaM73VwX7i7,conj,mm,sim_conj_gd_mm_1,1,0.446,1,0.457
no_gap,R_1PXVhaM73VwX7i7,conj,mm,sim_conj_gd_mm_2,1,0.44,1,0.519
no_gap,R_1PXVhaM73VwX7i7,conj,mm,sim_conj_gs_mm_1,1,0.61,1,0.43
no_gap,R_1PXVhaM73VwX7i7,conj,mm,sim_conj_gs_mm_2,1,0.396,1,0.529
no_gap,R_1PXVhaM73VwX7i7,conj,mm,sim_conj_rd_mm_1,1,0.489,1,0.392
no_gap,R_1PXVhaM73VwX7i7,conj,mm,sim_conj_rd_mm_2,1,0.44,1,0.429
no_gap,R_1PXVhaM73VwX7i7,conj,mm,sim_conj_rs_mm_1,1,0.449,1,0.488
no_gap,R_1PXVhaM73VwX7i7,conj,mm,sim_conj_rs_mm_2,1,0.441,1,0.533
gap,R_1Q0nnQSbpfMIzl8,conj,m,sim_conj_gd_m_1,1,2.352,0,2.447
gap,R_1Q0nnQSbpfMIzl8,conj,m,sim_conj_gd_m_2,0,2.06,1,1.476
gap,R_1Q0nnQSbpfMIzl8,conj,m,sim_conj_gs_m_1,0,1.568,1,1.439
gap,R_1Q0nnQSbpfMIzl8,conj,m,sim_conj_gs_m_2,1,2.159,1,2.076
gap,R_1Q0nnQSbpfMIzl8,conj,m,sim_conj_rd_m_1,1,1.946,1,2.598
gap,R_1Q0nnQSbpfMIzl8,conj,m,sim_conj_rd_m_2,1,45.414,0,1.025
gap,R_1Q0nnQSbpfMIzl8,conj,m,sim_conj_rs_m_1,0,1.718,1,0.423
gap,R_1Q0nnQSbpfMIzl8,conj,m,sim_conj_rs_m_2,1,0.94,1,1.953
gap,R_1Q0nnQSbpfMIzl8,conj,mm,sim_conj_gd_mm_1,1,2.669,1,1.38
gap,R_1Q0nnQSbpfMIzl8,conj,mm,sim_conj_gd_mm_2,1,2.988,1,0.61
gap,R_1Q0nnQSbpfMIzl8,conj,mm,sim_conj_gs_mm_1,0,8.789,1,1.159
gap,R_1Q0nnQSbpfMIzl8,conj,mm,sim_conj_gs_mm_2,1,1.747,0,6.286
gap,R_1Q0nnQSbpfMIzl8,conj,mm,sim_conj_rd_mm_1,1,2.255,1,2.068
gap,R_1Q0nnQSbpfMIzl8,conj,mm,sim_conj_rd_mm_2,1,2.611,1,2.457
gap,R_1Q0nnQSbpfMIzl8,conj,mm,sim_conj_rs_mm_1,1,3.362,1,1.752
gap,R_1Q0nnQSbpfMIzl8,conj,mm,sim_conj_rs_mm_2,1,0.898,1,2.949
gap,R_1QcQ8lM8sMgbe9Z,conj,m,sim_conj_gd_m_1,1,0.458,1,0.624
gap,R_1QcQ8lM8sMgbe9Z,conj,m,sim_conj_gd_m_2,1,0.71,1,0.953
gap,R_1QcQ8lM8sMgbe9Z,conj,m,sim_conj_gs_m_1,1,0.474,1,0.502
gap,R_1QcQ8lM8sMgbe9Z,conj,m,sim_conj_gs_m_2,1,0.434,1,0.463
gap,R_1QcQ8lM8sMgbe9Z,conj,m,sim_conj_rd_m_1,1,0.477,1,0.447
gap,R_1QcQ8lM8sMgbe9Z,conj,m,sim_conj_rd_m_2,1,0.538,1,0.605
gap,R_1QcQ8lM8sMgbe9Z,conj,m,sim_conj_rs_m_1,1,0.652,1,0.394
gap,R_1QcQ8lM8sMgbe9Z,conj,m,sim_conj_rs_m_2,1,0.562,1,1.071
gap,R_1QcQ8lM8sMgbe9Z,conj,mm,sim_conj_gd_mm_1,1,0.718,1,0.486
gap,R_1QcQ8lM8sMgbe9Z,conj,mm,sim_conj_gd_mm_2,1,0.524,1,0.615
gap,R_1QcQ8lM8sMgbe9Z,conj,mm,sim_conj_gs_mm_1,1,0.961,1,0.467
gap,R_1QcQ8lM8sMgbe9Z,conj,mm,sim_conj_gs_mm_2,1,0.542,1,0.678
gap,R_1QcQ8lM8sMgbe9Z,conj,mm,sim_conj_rd_mm_1,1,0.497,1,2.436
gap,R_1QcQ8lM8sMgbe9Z,conj,mm,sim_conj_rd_mm_2,1,0.816,1,0.706
gap,R_1QcQ8lM8sMgbe9Z,conj,mm,sim_conj_rs_mm_1,1,0.622,1,1.049
gap,R_1QcQ8lM8sMgbe9Z,conj,mm,sim_conj_rs_mm_2,1,0.578,1,0.834
no_gap,R_1QDSGYxg9iGBQ1N,conj,m,sim_conj_gd_m_1,1,1.247,1,1.377
no_gap,R_1QDSGYxg9iGBQ1N,conj,m,sim_conj_gd_m_2,1,0.945,1,0.667
no_gap,R_1QDSGYxg9iGBQ1N,conj,m,sim_conj_gs_m_1,1,1.381,1,1.21
no_gap,R_1QDSGYxg9iGBQ1N,conj,m,sim_conj_gs_m_2,1,0.672,1,1.332
no_gap,R_1QDSGYxg9iGBQ1N,conj,m,sim_conj_rd_m_1,1,1.461,1,1.393
no_gap,R_1QDSGYxg9iGBQ1N,conj,m,sim_conj_rd_m_2,1,1.736,1,1.155
no_gap,R_1QDSGYxg9iGBQ1N,conj,m,sim_conj_rs_m_1,1,0.992,1,0.851
no_gap,R_1QDSGYxg9iGBQ1N,conj,m,sim_conj_rs_m_2,1,1.32,1,1.249
no_gap,R_1QDSGYxg9iGBQ1N,conj,mm,sim_conj_gd_mm_1,1,1.308,1,0.875
no_gap,R_1QDSGYxg9iGBQ1N,conj,mm,sim_conj_gd_mm_2,1,1.205,1,1.4
no_gap,R_1QDSGYxg9iGBQ1N,conj,mm,sim_conj_gs_mm_1,0,1.325,1,1.086
no_gap,R_1QDSGYxg9iGBQ1N,conj,mm,sim_conj_gs_mm_2,1,1.271,1,1.254
no_gap,R_1QDSGYxg9iGBQ1N,conj,mm,sim_conj_rd_mm_1,1,0.87,1,1.135
no_gap,R_1QDSGYxg9iGBQ1N,conj,mm,sim_conj_rd_mm_2,1,0.94,1,1.026
no_gap,R_1QDSGYxg9iGBQ1N,conj,mm,sim_conj_rs_mm_1,1,0.94,1,1.031
no_gap,R_1QDSGYxg9iGBQ1N,conj,mm,sim_conj_rs_mm_2,1,0.933,1,1.093
gap,R_1QhHQgn3oncjPVH,conj,m,sim_conj_gd_m_1,1,0.713,1,0.382
gap,R_1QhHQgn3oncjPVH,conj,m,sim_conj_gd_m_2,1,0.515,1,0.686
gap,R_1QhHQgn3oncjPVH,conj,m,sim_conj_gs_m_1,1,0.484,1,0.605
gap,R_1QhHQgn3oncjPVH,conj,m,sim_conj_gs_m_2,1,0.521,1,0.598
gap,R_1QhHQgn3oncjPVH,conj,m,sim_conj_rd_m_1,1,0.89,1,0.527
gap,R_1QhHQgn3oncjPVH,conj,m,sim_conj_rd_m_2,1,0.514,1,0.554
gap,R_1QhHQgn3oncjPVH,conj,m,sim_conj_rs_m_1,1,0.49,1,0.435
gap,R_1QhHQgn3oncjPVH,conj,m,sim_conj_rs_m_2,1,0.746,1,0.77
gap,R_1QhHQgn3oncjPVH,conj,mm,sim_conj_gd_mm_1,1,0.621,1,0.642
gap,R_1QhHQgn3oncjPVH,conj,mm,sim_conj_gd_mm_2,1,0.814,1,0.67
gap,R_1QhHQgn3oncjPVH,conj,mm,sim_conj_gs_mm_1,1,0.637,1,0.833
gap,R_1QhHQgn3oncjPVH,conj,mm,sim_conj_gs_mm_2,1,0.643,1,0.631
gap,R_1QhHQgn3oncjPVH,conj,mm,sim_conj_rd_mm_1,1,0.776,1,0.495
gap,R_1QhHQgn3oncjPVH,conj,mm,sim_conj_rd_mm_2,1,0.51,1,0.545
gap,R_1QhHQgn3oncjPVH,conj,mm,sim_conj_rs_mm_1,1,0.861,1,0.418
gap,R_1QhHQgn3oncjPVH,conj,mm,sim_conj_rs_mm_2,1,0.648,1,0.62
no_gap,R_1qXpoOypYbjTRWl,conj,m,sim_conj_gd_m_1,1,1.64,1,1.644
no_gap,R_1qXpoOypYbjTRWl,conj,m,sim_conj_gd_m_2,1,1.67,1,2.495
no_gap,R_1qXpoOypYbjTRWl,conj,m,sim_conj_gs_m_1,1,0.676,1,1.545
no_gap,R_1qXpoOypYbjTRWl,conj,m,sim_conj_gs_m_2,1,0.516,1,1.859
no_gap,R_1qXpoOypYbjTRWl,conj,m,sim_conj_rd_m_1,1,1.062,1,2.589
no_gap,R_1qXpoOypYbjTRWl,conj,m,sim_conj_rd_m_2,1,1.314,1,3.423
no_gap,R_1qXpoOypYbjTRWl,conj,m,sim_conj_rs_m_1,1,1.064,1,2.3
no_gap,R_1qXpoOypYbjTRWl,conj,m,sim_conj_rs_m_2,1,1.922,1,3.006
no_gap,R_1qXpoOypYbjTRWl,conj,mm,sim_conj_gd_mm_1,1,1.617,1,2.739
no_gap,R_1qXpoOypYbjTRWl,conj,mm,sim_conj_gd_mm_2,1,1.931,1,1.489
no_gap,R_1qXpoOypYbjTRWl,conj,mm,sim_conj_gs_mm_1,1,2.659,1,1.506
no_gap,R_1qXpoOypYbjTRWl,conj,mm,sim_conj_gs_mm_2,1,1.122,1,3.061
no_gap,R_1qXpoOypYbjTRWl,conj,mm,sim_conj_rd_mm_1,1,2.217,1,4.074
no_gap,R_1qXpoOypYbjTRWl,conj,mm,sim_conj_rd_mm_2,1,2.829,1,1.492
no_gap,R_1qXpoOypYbjTRWl,conj,mm,sim_conj_rs_mm_1,1,4.289,1,0.761
no_gap,R_1qXpoOypYbjTRWl,conj,mm,sim_conj_rs_mm_2,1,2.151,1,2.077
gap,R_1r9CI6AFSBMawII,conj,m,sim_conj_gd_m_1,0,2.164,1,0.909
gap,R_1r9CI6AFSBMawII,conj,m,sim_conj_gd_m_2,1,0.598,1,0.417
gap,R_1r9CI6AFSBMawII,conj,m,sim_conj_gs_m_1,1,0.353,0,0.723
gap,R_1r9CI6AFSBMawII,conj,m,sim_conj_gs_m_2,1,0.641,1,0.834
gap,R_1r9CI6AFSBMawII,conj,m,sim_conj_rd_m_1,0,0.464,1,1.843
gap,R_1r9CI6AFSBMawII,conj,m,sim_conj_rd_m_2,1,0.701,1,1.852
gap,R_1r9CI6AFSBMawII,conj,m,sim_conj_rs_m_1,1,0.65,1,0.617
gap,R_1r9CI6AFSBMawII,conj,m,sim_conj_rs_m_2,1,1.165,1,0.707
gap,R_1r9CI6AFSBMawII,conj,mm,sim_conj_gd_mm_1,1,0.446,1,1.748
gap,R_1r9CI6AFSBMawII,conj,mm,sim_conj_gd_mm_2,1,0.526,0,0.282
gap,R_1r9CI6AFSBMawII,conj,mm,sim_conj_gs_mm_1,1,0.679,0,0.492
gap,R_1r9CI6AFSBMawII,conj,mm,sim_conj_gs_mm_2,1,0.494,1,0.792
gap,R_1r9CI6AFSBMawII,conj,mm,sim_conj_rd_mm_1,1,0.596,1,0.651
gap,R_1r9CI6AFSBMawII,conj,mm,sim_conj_rd_mm_2,1,1.477,1,0.761
gap,R_1r9CI6AFSBMawII,conj,mm,sim_conj_rs_mm_1,1,0.707,1,1.402
gap,R_1r9CI6AFSBMawII,conj,mm,sim_conj_rs_mm_2,1,0.48,0,1.354
no_gap,R_1rla5wg2eJeofgU,conj,m,sim_conj_gd_m_1,1,0.604,1,0.507
no_gap,R_1rla5wg2eJeofgU,conj,m,sim_conj_gd_m_2,1,0.429,1,0.824
no_gap,R_1rla5wg2eJeofgU,conj,m,sim_conj_gs_m_1,1,0.52,1,0.462
no_gap,R_1rla5wg2eJeofgU,conj,m,sim_conj_gs_m_2,1,0.907,1,0.609
no_gap,R_1rla5wg2eJeofgU,conj,m,sim_conj_rd_m_1,0,0.756,1,0.412
no_gap,R_1rla5wg2eJeofgU,conj,m,sim_conj_rd_m_2,1,1.021,1,0.829
no_gap,R_1rla5wg2eJeofgU,conj,m,sim_conj_rs_m_1,1,1.065,1,0.865
no_gap,R_1rla5wg2eJeofgU,conj,m,sim_conj_rs_m_2,1,0.445,1,0.849
no_gap,R_1rla5wg2eJeofgU,conj,mm,sim_conj_gd_mm_1,1,0.812,1,0.69
no_gap,R_1rla5wg2eJeofgU,conj,mm,sim_conj_gd_mm_2,1,0.738,1,0.545
no_gap,R_1rla5wg2eJeofgU,conj,mm,sim_conj_gs_mm_1,1,0.567,1,0.465
no_gap,R_1rla5wg2eJeofgU,conj,mm,sim_conj_gs_mm_2,1,1.025,1,0.542
no_gap,R_1rla5wg2eJeofgU,conj,mm,sim_conj_rd_mm_1,1,0.505,1,0.857
no_gap,R_1rla5wg2eJeofgU,conj,mm,sim_conj_rd_mm_2,1,0.986,1,0.569
no_gap,R_1rla5wg2eJeofgU,conj,mm,sim_conj_rs_mm_1,1,0.587,1,0.783
no_gap,R_1rla5wg2eJeofgU,conj,mm,sim_conj_rs_mm_2,1,0.574,1,0.837
no_gap,R_1rvojTzRtsDhwWZ,conj,m,sim_conj_gd_m_1,1,0.407,1,0.319
no_gap,R_1rvojTzRtsDhwWZ,conj,m,sim_conj_gd_m_2,1,0.345,1,0.457
no_gap,R_1rvojTzRtsDhwWZ,conj,m,sim_conj_gs_m_1,1,0.383,1,1.069
no_gap,R_1rvojTzRtsDhwWZ,conj,m,sim_conj_gs_m_2,1,0.718,1,0.38
no_gap,R_1rvojTzRtsDhwWZ,conj,m,sim_conj_rd_m_1,1,0.387,1,0.51
no_gap,R_1rvojTzRtsDhwWZ,conj,m,sim_conj_rd_m_2,1,0.4,1,0.535
no_gap,R_1rvojTzRtsDhwWZ,conj,m,sim_conj_rs_m_1,1,0.469,1,0.632
no_gap,R_1rvojTzRtsDhwWZ,conj,m,sim_conj_rs_m_2,1,0.415,1,0.351
no_gap,R_1rvojTzRtsDhwWZ,conj,mm,sim_conj_gd_mm_1,1,0.397,1,0.426
no_gap,R_1rvojTzRtsDhwWZ,conj,mm,sim_conj_gd_mm_2,1,0.824,1,0.498
no_gap,R_1rvojTzRtsDhwWZ,conj,mm,sim_conj_gs_mm_1,1,0.376,1,0.937
no_gap,R_1rvojTzRtsDhwWZ,conj,mm,sim_conj_gs_mm_2,1,0.443,1,0.932
no_gap,R_1rvojTzRtsDhwWZ,conj,mm,sim_conj_rd_mm_1,1,0.408,1,0.447
no_gap,R_1rvojTzRtsDhwWZ,conj,mm,sim_conj_rd_mm_2,1,0.364,1,0.425
no_gap,R_1rvojTzRtsDhwWZ,conj,mm,sim_conj_rs_mm_1,1,0.427,1,0.568
no_gap,R_1rvojTzRtsDhwWZ,conj,mm,sim_conj_rs_mm_2,1,0.41,1,0.505
no_gap,R_1XqCDwzg1i2Esxj,conj,m,sim_conj_gd_m_1,1,1.683,1,0.632
no_gap,R_1XqCDwzg1i2Esxj,conj,m,sim_conj_gd_m_2,1,0.603,1,1.5
no_gap,R_1XqCDwzg1i2Esxj,conj,m,sim_conj_gs_m_1,1,0.612,1,2.059
no_gap,R_1XqCDwzg1i2Esxj,conj,m,sim_conj_gs_m_2,1,1.307,1,0.941
no_gap,R_1XqCDwzg1i2Esxj,conj,m,sim_conj_rd_m_1,1,0.987,1,3.131
no_gap,R_1XqCDwzg1i2Esxj,conj,m,sim_conj_rd_m_2,1,1.268,1,0.547
no_gap,R_1XqCDwzg1i2Esxj,conj,m,sim_conj_rs_m_1,1,0.607,1,1.289
no_gap,R_1XqCDwzg1i2Esxj,conj,m,sim_conj_rs_m_2,1,1.3,1,3.688
no_gap,R_1XqCDwzg1i2Esxj,conj,mm,sim_conj_gd_mm_1,1,1.286,1,1.797
no_gap,R_1XqCDwzg1i2Esxj,conj,mm,sim_conj_gd_mm_2,1,0.796,1,2.235
no_gap,R_1XqCDwzg1i2Esxj,conj,mm,sim_conj_gs_mm_1,1,0.483,1,0.638
no_gap,R_1XqCDwzg1i2Esxj,conj,mm,sim_conj_gs_mm_2,1,0.839,0,1.063
no_gap,R_1XqCDwzg1i2Esxj,conj,mm,sim_conj_rd_mm_1,1,0.965,1,2.391
no_gap,R_1XqCDwzg1i2Esxj,conj,mm,sim_conj_rd_mm_2,1,0.709,1,1.524
no_gap,R_1XqCDwzg1i2Esxj,conj,mm,sim_conj_rs_mm_1,1,1.785,0,4.319
no_gap,R_1XqCDwzg1i2Esxj,conj,mm,sim_conj_rs_mm_2,1,1.016,1,1.764
no_gap,R_20Mv4w5vYeNCTls,conj,m,sim_conj_gd_m_1,1,0.85,1,1.372
no_gap,R_20Mv4w5vYeNCTls,conj,m,sim_conj_gd_m_2,1,1.13,1,1.221
no_gap,R_20Mv4w5vYeNCTls,conj,m,sim_conj_gs_m_1,1,1.053,1,0.866
no_gap,R_20Mv4w5vYeNCTls,conj,m,sim_conj_gs_m_2,1,0.855,1,0.66
no_gap,R_20Mv4w5vYeNCTls,conj,m,sim_conj_rd_m_1,1,0.716,1,0.632
no_gap,R_20Mv4w5vYeNCTls,conj,m,sim_conj_rd_m_2,1,0.651,1,0.77
no_gap,R_20Mv4w5vYeNCTls,conj,m,sim_conj_rs_m_1,1,0.67,1,0.733
no_gap,R_20Mv4w5vYeNCTls,conj,m,sim_conj_rs_m_2,1,0.498,1,0.816
no_gap,R_20Mv4w5vYeNCTls,conj,mm,sim_conj_gd_mm_1,1,0.642,1,0.952
no_gap,R_20Mv4w5vYeNCTls,conj,mm,sim_conj_gd_mm_2,1,0.641,1,0.926
no_gap,R_20Mv4w5vYeNCTls,conj,mm,sim_conj_gs_mm_1,1,0.684,1,0.648
no_gap,R_20Mv4w5vYeNCTls,conj,mm,sim_conj_gs_mm_2,0,0.78,1,0.968
no_gap,R_20Mv4w5vYeNCTls,conj,mm,sim_conj_rd_mm_1,1,0.915,1,1.056
no_gap,R_20Mv4w5vYeNCTls,conj,mm,sim_conj_rd_mm_2,1,0.959,1,1.391
no_gap,R_20Mv4w5vYeNCTls,conj,mm,sim_conj_rs_mm_1,1,0.694,1,0.646
no_gap,R_20Mv4w5vYeNCTls,conj,mm,sim_conj_rs_mm_2,1,0.765,1,0.699
gap,R_2107Kbqwjw5sjVi,conj,m,sim_conj_gd_m_1,1,0.542,1,0.703
gap,R_2107Kbqwjw5sjVi,conj,m,sim_conj_gd_m_2,1,0.439,1,0.562
gap,R_2107Kbqwjw5sjVi,conj,m,sim_conj_gs_m_1,1,0.506,1,0.682
gap,R_2107Kbqwjw5sjVi,conj,m,sim_conj_gs_m_2,1,0.456,1,0.519
gap,R_2107Kbqwjw5sjVi,conj,m,sim_conj_rd_m_1,1,0.55,1,0.57
gap,R_2107Kbqwjw5sjVi,conj,m,sim_conj_rd_m_2,1,0.394,1,0.455
gap,R_2107Kbqwjw5sjVi,conj,m,sim_conj_rs_m_1,1,0.426,1,0.398
gap,R_2107Kbqwjw5sjVi,conj,m,sim_conj_rs_m_2,1,0.51,1,0.52
gap,R_2107Kbqwjw5sjVi,conj,mm,sim_conj_gd_mm_1,1,0.547,1,0.761
gap,R_2107Kbqwjw5sjVi,conj,mm,sim_conj_gd_mm_2,1,0.412,1,1.827
gap,R_2107Kbqwjw5sjVi,conj,mm,sim_conj_gs_mm_1,1,0.66,1,0.568
gap,R_2107Kbqwjw5sjVi,conj,mm,sim_conj_gs_mm_2,1,0.436,1,0.927
gap,R_2107Kbqwjw5sjVi,conj,mm,sim_conj_rd_mm_1,1,0.458,1,0.512
gap,R_2107Kbqwjw5sjVi,conj,mm,sim_conj_rd_mm_2,1,0.557,1,1.096
gap,R_2107Kbqwjw5sjVi,conj,mm,sim_conj_rs_mm_1,1,0.723,1,0.652
gap,R_2107Kbqwjw5sjVi,conj,mm,sim_conj_rs_mm_2,1,0.598,1,0.745
gap,R_21A0Opwy47DGP0D,conj,m,sim_conj_gd_m_1,1,0.459,1,0.579
gap,R_21A0Opwy47DGP0D,conj,m,sim_conj_gd_m_2,0,0.543,1,0.951
gap,R_21A0Opwy47DGP0D,conj,m,sim_conj_gs_m_1,1,0.768,1,0.551
gap,R_21A0Opwy47DGP0D,conj,m,sim_conj_gs_m_2,1,0.638,1,1.128
gap,R_21A0Opwy47DGP0D,conj,m,sim_conj_rd_m_1,1,0.553,1,0.643
gap,R_21A0Opwy47DGP0D,conj,m,sim_conj_rd_m_2,1,0.622,1,0.785
gap,R_21A0Opwy47DGP0D,conj,m,sim_conj_rs_m_1,1,0.623,1,0.5
gap,R_21A0Opwy47DGP0D,conj,m,sim_conj_rs_m_2,1,0.543,1,0.764
gap,R_21A0Opwy47DGP0D,conj,mm,sim_conj_gd_mm_1,1,0.63,1,1.006
gap,R_21A0Opwy47DGP0D,conj,mm,sim_conj_gd_mm_2,1,0.543,1,0.843
gap,R_21A0Opwy47DGP0D,conj,mm,sim_conj_gs_mm_1,1,0.875,1,1.798
gap,R_21A0Opwy47DGP0D,conj,mm,sim_conj_gs_mm_2,1,0.757,1,0.71
gap,R_21A0Opwy47DGP0D,conj,mm,sim_conj_rd_mm_1,1,0.51,1,0.506
gap,R_21A0Opwy47DGP0D,conj,mm,sim_conj_rd_mm_2,1,0.7,1,0.838
gap,R_21A0Opwy47DGP0D,conj,mm,sim_conj_rs_mm_1,1,0.64,1,0.818
gap,R_21A0Opwy47DGP0D,conj,mm,sim_conj_rs_mm_2,1,0.664,1,0.859
gap,R_21ixygMv7kGQldy,conj,m,sim_conj_gd_m_1,1,0.517,1,0.694
gap,R_21ixygMv7kGQldy,conj,m,sim_conj_gd_m_2,1,0.488,0,0.969
gap,R_21ixygMv7kGQldy,conj,m,sim_conj_gs_m_1,1,0.41,1,1.077
gap,R_21ixygMv7kGQldy,conj,m,sim_conj_gs_m_2,1,0.747,1,0.522
gap,R_21ixygMv7kGQldy,conj,m,sim_conj_rd_m_1,1,0.455,1,1.089
gap,R_21ixygMv7kGQldy,conj,m,sim_conj_rd_m_2,1,0.529,1,0.491
gap,R_21ixygMv7kGQldy,conj,m,sim_conj_rs_m_1,1,0.865,1,0.514
gap,R_21ixygMv7kGQldy,conj,m,sim_conj_rs_m_2,1,0.588,1,0.67
gap,R_21ixygMv7kGQldy,conj,mm,sim_conj_gd_mm_1,1,0.502,1,1.017
gap,R_21ixygMv7kGQldy,conj,mm,sim_conj_gd_mm_2,1,0.567,1,0.956
gap,R_21ixygMv7kGQldy,conj,mm,sim_conj_gs_mm_1,1,0.789,1,0.45
gap,R_21ixygMv7kGQldy,conj,mm,sim_conj_gs_mm_2,1,0.688,1,2.038
gap,R_21ixygMv7kGQldy,conj,mm,sim_conj_rd_mm_1,1,0.625,1,1.71
gap,R_21ixygMv7kGQldy,conj,mm,sim_conj_rd_mm_2,1,0.577,1,0.842
gap,R_21ixygMv7kGQldy,conj,mm,sim_conj_rs_mm_1,1,1.229,1,1.011
gap,R_21ixygMv7kGQldy,conj,mm,sim_conj_rs_mm_2,1,0.82,1,0.621
gap,R_232mnWKrVorZxtV,conj,m,sim_conj_gd_m_1,1,1.48,1,1.414
gap,R_232mnWKrVorZxtV,conj,m,sim_conj_gd_m_2,0,1.948,1,0.778
gap,R_232mnWKrVorZxtV,conj,m,sim_conj_gs_m_1,1,0.84,1,2.175
gap,R_232mnWKrVorZxtV,conj,m,sim_conj_gs_m_2,1,1.567,1,1.267
gap,R_232mnWKrVorZxtV,conj,m,sim_conj_rd_m_1,1,0.632,1,1.349
gap,R_232mnWKrVorZxtV,conj,m,sim_conj_rd_m_2,1,1.4,1,1.337
gap,R_232mnWKrVorZxtV,conj,m,sim_conj_rs_m_1,1,0.788,1,2.574
gap,R_232mnWKrVorZxtV,conj,m,sim_conj_rs_m_2,1,0.588,1,1.223
gap,R_232mnWKrVorZxtV,conj,mm,sim_conj_gd_mm_1,1,2.171,1,1.244
gap,R_232mnWKrVorZxtV,conj,mm,sim_conj_gd_mm_2,1,1.062,1,2.215
gap,R_232mnWKrVorZxtV,conj,mm,sim_conj_gs_mm_1,1,1.419,1,0.823
gap,R_232mnWKrVorZxtV,conj,mm,sim_conj_gs_mm_2,1,1.466,1,1.229
gap,R_232mnWKrVorZxtV,conj,mm,sim_conj_rd_mm_1,1,1.659,0,1.804
gap,R_232mnWKrVorZxtV,conj,mm,sim_conj_rd_mm_2,1,1.216,1,1.125
gap,R_232mnWKrVorZxtV,conj,mm,sim_conj_rs_mm_1,1,3.774,1,1.482
gap,R_232mnWKrVorZxtV,conj,mm,sim_conj_rs_mm_2,1,0.825,1,1.636
no_gap,R_23TwjQv7jVMZAHh,conj,m,sim_conj_gd_m_1,1,1.247,1,1.452
no_gap,R_23TwjQv7jVMZAHh,conj,m,sim_conj_gd_m_2,1,1.696,1,1.772
no_gap,R_23TwjQv7jVMZAHh,conj,m,sim_conj_gs_m_1,0,1.079,1,1.532
no_gap,R_23TwjQv7jVMZAHh,conj,m,sim_conj_gs_m_2,1,1.813,1,2.027
no_gap,R_23TwjQv7jVMZAHh,conj,m,sim_conj_rd_m_1,1,0.984,1,1.447
no_gap,R_23TwjQv7jVMZAHh,conj,m,sim_conj_rd_m_2,1,2.035,1,1.398
no_gap,R_23TwjQv7jVMZAHh,conj,m,sim_conj_rs_m_1,1,0.829,1,1.774
no_gap,R_23TwjQv7jVMZAHh,conj,m,sim_conj_rs_m_2,1,2.172,1,0.878
no_gap,R_23TwjQv7jVMZAHh,conj,mm,sim_conj_gd_mm_1,1,1.683,1,1.433
no_gap,R_23TwjQv7jVMZAHh,conj,mm,sim_conj_gd_mm_2,1,2.562,1,0.872
no_gap,R_23TwjQv7jVMZAHh,conj,mm,sim_conj_gs_mm_1,1,1.069,1,1.209
no_gap,R_23TwjQv7jVMZAHh,conj,mm,sim_conj_gs_mm_2,1,1.63,1,1.46
no_gap,R_23TwjQv7jVMZAHh,conj,mm,sim_conj_rd_mm_1,1,1.47,1,2.686
no_gap,R_23TwjQv7jVMZAHh,conj,mm,sim_conj_rd_mm_2,1,0.911,1,1.307
no_gap,R_23TwjQv7jVMZAHh,conj,mm,sim_conj_rs_mm_1,1,1.45,1,1.508
no_gap,R_23TwjQv7jVMZAHh,conj,mm,sim_conj_rs_mm_2,1,0.944,1,1.41
gap,R_23UGi46yIwlgRIg,conj,m,sim_conj_gd_m_1,1,0.483,1,0.518
gap,R_23UGi46yIwlgRIg,conj,m,sim_conj_gd_m_2,1,0.976,1,0.651
gap,R_23UGi46yIwlgRIg,conj,m,sim_conj_gs_m_1,1,0.973,1,0.603
gap,R_23UGi46yIwlgRIg,conj,m,sim_conj_gs_m_2,1,0.994,1,0.634
gap,R_23UGi46yIwlgRIg,conj,m,sim_conj_rd_m_1,1,0.548,1,0.548
gap,R_23UGi46yIwlgRIg,conj,m,sim_conj_rd_m_2,0,0.519,1,0.77
gap,R_23UGi46yIwlgRIg,conj,m,sim_conj_rs_m_1,1,0.605,1,0.405
