Task,Topic,anchor,correct,correct_Check_response,correct_decision_response,correct_response,correct_response_target,correct_target,identifier,memory,picture,recterm,response_time,response_time_Check_response,response_time_decision_response,response_time_target,term,term_list,trial_seq,jatosStudyResultId
consent,None,None,NA,None,None,None,None,None,1sy8ixw7o,None,None,None,621,None,None,None,None,None,None,108129
Prac,None,None,1,None,1,a,a,None,1sy8ixw7o,n,banana green.png,[],1250,None,1250,None,李子,"['橘子', '檸檬', '時鐘', '袋鼠', '香蕉', '猴子']",1,108129
Prac,None,None,0,None,0,a,a,None,1sy8ixw7o,n,broom_2.png,[],477,None,477,None,拖把,"['橘子', '檸檬', '時鐘', '袋鼠', '香蕉', '猴子']",2,108129
Prac,None,None,1,None,1,a,a,None,1sy8ixw7o,n,monkeyorange_1_240.png,[],882,None,882,None,兔子,"['橘子', '檸檬', '時鐘', '袋鼠', '香蕉', '猴子']",3,108129
Prac,None,None,1,None,1,l,l,None,1sy8ixw7o,n,broom_2.png,[],1297,None,1297,None,掃帚,"['橘子', '檸檬', '時鐘', '袋鼠', '香蕉', '猴子']",4,108129
Prac,None,None,1,None,1,a,a,None,1sy8ixw7o,n,kangaroo_1.png,[],873,None,873,None,文件夾,"['橘子', '檸檬', '時鐘', '袋鼠', '香蕉', '猴子']",5,108129
Prac,None,3,1,None,1,a,a,None,1sy8ixw7o,n,clock_300.png,兔子,870,None,870,None,金字塔,"['橘子', '檸檬', '時鐘', '袋鼠', '香蕉', '猴子']",6,108129
Prac,None,0,1,None,1,l,l,None,1sy8ixw7o,n,monkeyorange_1_240.png,猴子,824,None,824,None,猴子,"['橘子', '檸檬', '時鐘', '袋鼠', '香蕉', '猴子']",7,108129
Prac,None,4,0,0,1,a,a,None,1sy8ixw7o,y,banana green.png,掃帚,1415,1415,427,None,香蕉,"['橘子', '檸檬', '時鐘', '袋鼠', '香蕉', '猴子']",8,108129
Prac,None,1,1,0,1,l,l,None,1sy8ixw7o,n,kangaroo_1.png,香蕉,461,1415,461,None,袋鼠,"['橘子', '檸檬', '時鐘', '袋鼠', '香蕉', '猴子']",9,108129
Prac,None,4,0,0,0,a,a,None,1sy8ixw7o,n,clock_300.png,金字塔,605,1415,605,None,時鐘,"['橘子', '檸檬', '時鐘', '袋鼠', '香蕉', '猴子']",10,108129
Prac,None,4,1,0,1,a,a,None,1sy8ixw7o,n,orangeorange_1.png,猴子,669,1415,669,None,檸檬,"['橘子', '檸檬', '時鐘', '袋鼠', '香蕉', '猴子']",11,108129
Prac,None,3,1,0,1,a,a,None,1sy8ixw7o,n,orangeorange_1.png,袋鼠,441,1415,441,None,橘子,"['橘子', '檸檬', '時鐘', '袋鼠', '香蕉', '猴子']",12,108129
Exp,None,3,1,0,1,a,a,None,1sy8ixw7o,n,staplergreen_LQN.png,[],563,1415,563,None,被子,"['盒裝衛生紙', '羽毛撣子', '羽毛撣子', '蝴蝶', '椅子', '杯子']",1,108129
Exp,None,3,1,0,1,l,l,None,1sy8ixw7o,n,tableorange_CWL.png,[],618,1415,618,None,桌子,"['盒裝衛生紙', '羽毛撣子', '羽毛撣子', '蝴蝶', '椅子', '杯子']",2,108129
Exp,None,3,1,0,1,a,a,None,1sy8ixw7o,n,frame_CKW.png,[],617,1415,617,None,書籤,"['盒裝衛生紙', '羽毛撣子', '羽毛撣子', '蝴蝶', '椅子', '杯子']",3,108129
Exp,None,3,1,0,1,a,a,None,1sy8ixw7o,n,goggles_CHN.png,[],487,1415,487,None,支票,"['盒裝衛生紙', '羽毛撣子', '羽毛撣子', '蝴蝶', '椅子', '杯子']",4,108129
Exp,None,3,1,0,1,a,a,None,1sy8ixw7o,n,highlighter_Jed.png,[],638,1415,638,None,毛線球,"['盒裝衛生紙', '羽毛撣子', '羽毛撣子', '蝴蝶', '椅子', '杯子']",5,108129
Exp,None,1,1,0,1,l,l,None,1sy8ixw7o,n,birdorange_CWL.png,毛線球,460,1415,460,None,小鳥,"['盒裝衛生紙', '羽毛撣子', '羽毛撣子', '蝴蝶', '椅子', '杯子']",6,108129
Exp,None,2,1,0,1,l,l,None,1sy8ixw7o,n,toothbrushpurple_CJJ.png,毛線球,663,1415,663,None,牙刷,"['盒裝衛生紙', '羽毛撣子', '羽毛撣子', '蝴蝶', '椅子', '杯子']",7,108129
Exp,None,0,1,1,1,l,l,None,1sy8ixw7o,y,drainplugred_LQN.png,長笛,918,918,619,None,長笛,"['盒裝衛生紙', '羽毛撣子', '羽毛撣子', '蝴蝶', '椅子', '杯子']",8,108129
Exp,None,1,1,1,1,l,l,None,1sy8ixw7o,n,tshirtbrown_HKL.png,長笛,407,918,407,None,T恤,"['盒裝衛生紙', '羽毛撣子', '羽毛撣子', '蝴蝶', '椅子', '杯子']",9,108129
Exp,None,4,1,1,1,a,a,None,1sy8ixw7o,n,screwyellow_CHN.png,小鳥,576,918,576,None,螺絲釘,"['盒裝衛生紙', '羽毛撣子', '羽毛撣子', '蝴蝶', '椅子', '杯子']",10,108129
Exp,None,2,1,1,1,l,l,None,1sy8ixw7o,n,shoes_CWL.png,T恤,385,918,385,None,鞋子,"['盒裝衛生紙', '羽毛撣子', '羽毛撣子', '蝴蝶', '椅子', '杯子']",11,108129
Exp,None,0,1,1,1,l,l,None,1sy8ixw7o,n,lipstick_CJJ.png,口紅,378,918,378,None,口紅,"['盒裝衛生紙', '羽毛撣子', '羽毛撣子', '蝴蝶', '椅子', '杯子']",12,108129
Exp,None,3,1,1,1,a,a,None,1sy8ixw7o,n,bird_CWL.png,螺絲釘,372,918,372,None,小鳥,"['盒裝衛生紙', '羽毛撣子', '羽毛撣子', '蝴蝶', '椅子', '杯子']",13,108129
Exp,None,3,1,1,1,a,a,None,1sy8ixw7o,n,shorts_CJJ.png,鞋子,306,918,306,None,短褲,"['盒裝衛生紙', '羽毛撣子', '羽毛撣子', '蝴蝶', '椅子', '杯子']",14,108129
Exp,None,3,1,1,1,a,a,None,1sy8ixw7o,n,scarf_Willy.png,口紅,359,918,359,None,圍巾,"['盒裝衛生紙', '羽毛撣子', '羽毛撣子', '蝴蝶', '椅子', '杯子']",15,108129
Exp,None,0,1,1,1,l,l,None,1sy8ixw7o,n,fish_Willy.png,魚,307,918,307,None,魚,"['盒裝衛生紙', '羽毛撣子', '羽毛撣子', '蝴蝶', '椅子', '杯子']",16,108129
Exp,None,2,1,1,1,l,l,None,1sy8ixw7o,n,bowl_CWL.png,圍巾,382,918,382,None,碗,"['盒裝衛生紙', '羽毛撣子', '羽毛撣子', '蝴蝶', '椅子', '杯子']",17,108129
Exp,None,3,1,1,1,a,a,None,1sy8ixw7o,n,chargergreen_LTY.png,圍巾,514,918,514,None,毛巾,"['盒裝衛生紙', '羽毛撣子', '羽毛撣子', '蝴蝶', '椅子', '杯子']",18,108129
Exp,None,3,1,1,1,a,a,None,1sy8ixw7o,n,fork_HKL.png,魚,438,918,438,None,叉子,"['盒裝衛生紙', '羽毛撣子', '羽毛撣子', '蝴蝶', '椅子', '杯子']",19,108129
Exp,None,1,1,1,1,l,l,None,1sy8ixw7o,n,extensionred_CHN.png,叉子,548,918,548,None,車子,"['盒裝衛生紙', '羽毛撣子', '羽毛撣子', '蝴蝶', '椅子', '杯子']",20,108129
Exp,None,3,1,1,1,a,a,None,1sy8ixw7o,n,glove_CWL.png,毛巾,433,918,433,None,手套,"['盒裝衛生紙', '羽毛撣子', '羽毛撣子', '蝴蝶', '椅子', '杯子']",21,108129
Exp,None,1,1,1,1,l,l,None,1sy8ixw7o,n,deodorant_Jed.png,手套,677,918,677,None,手錶,"['盒裝衛生紙', '羽毛撣子', '羽毛撣子', '蝴蝶', '椅子', '杯子']",22,108129
Exp,None,4,1,1,1,a,a,None,1sy8ixw7o,n,saw_Willy.png,叉子,610,918,610,None,電鋸,"['盒裝衛生紙', '羽毛撣子', '羽毛撣子', '蝴蝶', '椅子', '杯子']",23,108129
Exp,None,3,1,1,1,a,a,None,1sy8ixw7o,n,mp3player_Jed.png,手套,439,918,439,None,盤子,"['盒裝衛生紙', '羽毛撣子', '羽毛撣子', '蝴蝶', '椅子', '杯子']",24,108129
Exp,None,0,1,1,1,l,l,None,1sy8ixw7o,y,highlighterorange_Jed.png,毛線球,855,855,473,None,毛線球,"['盒裝衛生紙', '羽毛撣子', '羽毛撣子', '蝴蝶', '椅子', '杯子']",25,108129
Exp,None,1,1,1,1,l,l,None,1sy8ixw7o,n,lamp_CWL.png,毛線球,392,855,392,None,桌燈,"['盒裝衛生紙', '羽毛撣子', '羽毛撣子', '蝴蝶', '椅子', '杯子']",26,108129
Exp,None,1,1,1,1,l,l,None,1sy8ixw7o,n,plushy_LTY.png,桌燈,338,855,338,None,指甲銼,"['盒裝衛生紙', '羽毛撣子', '羽毛撣子', '蝴蝶', '椅子', '杯子']",27,108129
Exp,None,4,1,1,1,a,a,None,1sy8ixw7o,n,drainplug_LQN.png,盤子,552,855,552,None,長笛,"['盒裝衛生紙', '羽毛撣子', '羽毛撣子', '蝴蝶', '椅子', '杯子']",28,108129
Exp,None,3,1,1,1,a,a,None,1sy8ixw7o,n,phonebrown_Jed.png,桌燈,428,855,428,None,手鐲,"['盒裝衛生紙', '羽毛撣子', '羽毛撣子', '蝴蝶', '椅子', '杯子']",29,108129
Exp,None,5,1,1,1,a,a,None,1sy8ixw7o,n,tennisracket_CWL.png,毛線球,596,855,596,None,網球拍,"['盒裝衛生紙', '羽毛撣子', '羽毛撣子', '蝴蝶', '椅子', '杯子']",30,108129
Exp,None,0,1,1,1,l,l,None,1sy8ixw7o,n,boatorange_LTY.png,蝴蝶,512,855,512,None,蝴蝶,"['盒裝衛生紙', '羽毛撣子', '羽毛撣子', '蝴蝶', '椅子', '杯子']",31,108129
Exp,None,4,1,1,1,a,a,None,1sy8ixw7o,n,mousepadred_Willy.png,長笛,371,855,371,None,滑鼠墊,"['盒裝衛生紙', '羽毛撣子', '羽毛撣子', '蝴蝶', '椅子', '杯子']",32,108129
Exp,None,1,1,1,1,l,l,None,1sy8ixw7o,n,hammer_CJJ.png,滑鼠墊,581,855,581,None,錘子,"['盒裝衛生紙', '羽毛撣子', '羽毛撣子', '蝴蝶', '椅子', '杯子']",33,108129
Exp,None,2,1,1,1,l,l,None,1sy8ixw7o,n,coatbutton_Willy.png,滑鼠墊,368,855,368,None,外套鈕扣,"['盒裝衛生紙', '羽毛撣子', '羽毛撣子', '蝴蝶', '椅子', '杯子']",34,108129
Exp,None,4,0,1,0,a,a,None,1sy8ixw7o,n,gunpink_CKW.png,蝴蝶,403,855,403,None,剪刀,"['盒裝衛生紙', '羽毛撣子', '羽毛撣子', '蝴蝶', '椅子', '杯子']",35,108129
Exp,None,3,1,1,1,a,a,None,1sy8ixw7o,n,toothbrush_CJJ.png,錘子,411,855,411,None,牙刷,"['盒裝衛生紙', '羽毛撣子', '羽毛撣子', '蝴蝶', '椅子', '杯子']",36,108129
Exp,None,5,1,1,1,a,a,None,1sy8ixw7o,n,pipegreen_LQN.png,滑鼠墊,438,855,438,None,原子筆,"['盒裝衛生紙', '羽毛撣子', '羽毛撣子', '蝴蝶', '椅子', '杯子']",37,108129
Exp,None,1,1,1,1,l,l,None,1sy8ixw7o,n,plushyblue_LTY.png,原子筆,360,855,360,None,指甲銼,"['盒裝衛生紙', '羽毛撣子', '羽毛撣子', '蝴蝶', '椅子', '杯子']",38,108129
Exp,None,0,1,1,1,l,l,None,1sy8ixw7o,n,bin_CHN.png,蝴蝶,412,855,412,None,蝴蝶,"['盒裝衛生紙', '羽毛撣子', '羽毛撣子', '蝴蝶', '椅子', '杯子']",39,108129
Exp,None,0,1,1,1,l,l,None,1sy8ixw7o,n,toothpastepink_CKW.png,衣架,346,855,346,None,衣架,"['盒裝衛生紙', '羽毛撣子', '羽毛撣子', '蝴蝶', '椅子', '杯子']",40,108129
Exp,None,2,1,1,1,l,l,None,1sy8ixw7o,y,eraser_CKW.png,蝴蝶,813,813,420,None,襪子,"['盒裝衛生紙', '羽毛撣子', '羽毛撣子', '蝴蝶', '椅子', '杯子']",41,108129
Exp,None,5,1,1,1,a,a,None,1sy8ixw7o,n,screwdriver_Willy.png,原子筆,426,813,426,None,螺絲起子,"['盒裝衛生紙', '羽毛撣子', '羽毛撣子', '蝴蝶', '椅子', '杯子']",42,108129
Exp,None,4,1,1,1,a,a,None,1sy8ixw7o,n,icetray_LTY.png,蝴蝶,426,813,426,None,門板,"['盒裝衛生紙', '羽毛撣子', '羽毛撣子', '蝴蝶', '椅子', '杯子']",43,108129
Exp,None,0,1,1,1,l,l,None,1sy8ixw7o,n,airfreshenerorange_CJJ.png,空氣清新劑,340,813,340,None,空氣清新劑,"['盒裝衛生紙', '羽毛撣子', '羽毛撣子', '蝴蝶', '椅子', '杯子']",44,108129
Exp,None,3,1,1,1,a,a,None,1sy8ixw7o,n,knifepurple_HKL.png,螺絲起子,664,813,664,None,刀子,"['盒裝衛生紙', '羽毛撣子', '羽毛撣子', '蝴蝶', '椅子', '杯子']",45,108129
Exp,None,1,1,1,1,l,l,None,1sy8ixw7o,n,tv_LTY.png,刀子,415,813,415,None,盒子,"['盒裝衛生紙', '羽毛撣子', '羽毛撣子', '蝴蝶', '椅子', '杯子']",46,108129
Exp,None,0,1,1,1,l,l,None,1sy8ixw7o,n,chalk_LQN.png,卡車,547,813,547,None,卡車,"['盒裝衛生紙', '羽毛撣子', '羽毛撣子', '蝴蝶', '椅子', '杯子']",47,108129
Exp,None,1,0,1,0,l,l,None,1sy8ixw7o,n,gloveblue_CWL.png,卡車,409,813,458,None,手套,"['盒裝衛生紙', '羽毛撣子', '羽毛撣子', '蝴蝶', '椅子', '杯子']",48,108129
Exp,None,3,1,1,1,a,a,None,1sy8ixw7o,n,usbbrown_CKW.png,盒子,516,813,516,None,領帶,"['盒裝衛生紙', '羽毛撣子', '羽毛撣子', '蝴蝶', '椅子', '杯子']",49,108129
Exp,None,2,1,1,1,l,l,None,1sy8ixw7o,n,sponge_CKW.png,手套,514,813,514,None,枕頭,"['盒裝衛生紙', '羽毛撣子', '羽毛撣子', '蝴蝶', '椅子', '杯子']",50,108129
Exp,None,4,1,1,1,a,a,None,1sy8ixw7o,n,iceskatepink_Jed.png,卡車,1142,813,1142,None,鬧鐘,"['盒裝衛生紙', '羽毛撣子', '羽毛撣子', '蝴蝶', '椅子', '杯子']",51,108129
Exp,None,4,1,1,1,a,a,None,1sy8ixw7o,n,scarforange_Willy.png,手套,349,813,349,None,圍巾,"['盒裝衛生紙', '羽毛撣子', '羽毛撣子', '蝴蝶', '椅子', '杯子']",52,108129
Exp,None,2,1,1,1,l,l,None,1sy8ixw7o,n,magnetbrown_LQN.png,鬧鐘,406,813,406,None,瓶子,"['盒裝衛生紙', '羽毛撣子', '羽毛撣子', '蝴蝶', '椅子', '杯子']",53,108129
Exp,None,5,1,1,1,a,a,None,1sy8ixw7o,n,slippersblue_Willy.png,領帶,661,813,661,None,拖鞋,"['盒裝衛生紙', '羽毛撣子', '羽毛撣子', '蝴蝶', '椅子', '杯子']",54,108129
Exp,None,0,1,1,1,l,l,None,1sy8ixw7o,n,sofapink_HKL.png,沙發,610,813,610,None,沙發,"['盒裝衛生紙', '羽毛撣子', '羽毛撣子', '蝴蝶', '椅子', '杯子']",55,108129
Exp,None,3,0,0,1,a,a,None,1sy8ixw7o,y,duck_CHN.png,瓶子,700,700,628,None,夾克,"['盒裝衛生紙', '羽毛撣子', '羽毛撣子', '蝴蝶', '椅子', '杯子']",56,108129
Exp,None,4,1,0,1,a,a,None,1sy8ixw7o,n,lampblue_CWL.png,瓶子,477,700,477,None,桌燈,"['盒裝衛生紙', '羽毛撣子', '羽毛撣子', '蝴蝶', '椅子', '杯子']",57,108129
Exp,None,1,1,0,1,l,l,None,1sy8ixw7o,n,coaster_Jed.png,桌燈,463,700,463,None,鑷子,"['盒裝衛生紙', '羽毛撣子', '羽毛撣子', '蝴蝶', '椅子', '杯子']",58,108129
Exp,None,3,1,0,1,a,a,None,1sy8ixw7o,n,chaliceorange_CKW.png,夾克,449,700,449,None,書桌,"['盒裝衛生紙', '羽毛撣子', '羽毛撣子', '蝴蝶', '椅子', '杯子']",59,108129
Exp,None,0,1,0,1,l,l,None,1sy8ixw7o,n,sodacan_HKL.png,汽水罐,367,700,367,None,汽水罐,"['盒裝衛生紙', '羽毛撣子', '羽毛撣子', '蝴蝶', '椅子', '杯子']",60,108129
Exp,None,5,1,0,1,a,a,None,1sy8ixw7o,n,alarm_LQN.png,夾克,416,700,416,None,梳子,"['盒裝衛生紙', '羽毛撣子', '羽毛撣子', '蝴蝶', '椅子', '杯子']",61,108129
Exp,None,3,1,0,1,a,a,None,1sy8ixw7o,n,gogglesred_CHN.png,書桌,722,700,722,None,支票,"['盒裝衛生紙', '羽毛撣子', '羽毛撣子', '蝴蝶', '椅子', '杯子']",62,108129
Exp,None,4,1,0,1,a,a,None,1sy8ixw7o,n,chest_CHN.png,書桌,362,700,362,None,寶箱,"['盒裝衛生紙', '羽毛撣子', '羽毛撣子', '蝴蝶', '椅子', '杯子']",63,108129
Exp,None,0,1,0,1,l,l,None,1sy8ixw7o,n,screwdriverpurple_Willy.png,螺絲起子,358,700,358,None,螺絲起子,"['盒裝衛生紙', '羽毛撣子', '羽毛撣子', '蝴蝶', '椅子', '杯子']",64,108129
Exp,None,4,1,0,1,a,a,None,1sy8ixw7o,n,purseblue_HKL.png,梳子,388,700,388,None,手提包,"['盒裝衛生紙', '羽毛撣子', '羽毛撣子', '蝴蝶', '椅子', '杯子']",65,108129
Exp,None,4,1,0,1,a,a,None,1sy8ixw7o,n,bookyellow_CWL.png,支票,426,700,426,None,精裝書,"['盒裝衛生紙', '羽毛撣子', '羽毛撣子', '蝴蝶', '椅子', '杯子']",66,108129
Exp,None,4,1,0,1,a,a,None,1sy8ixw7o,n,yogamat_Willy.png,寶箱,393,700,393,None,瑜珈墊,"['盒裝衛生紙', '羽毛撣子', '羽毛撣子', '蝴蝶', '椅子', '杯子']",67,108129
Exp,None,3,1,0,1,a,a,None,1sy8ixw7o,n,shoesred_CWL.png,手提包,380,700,380,None,鞋子,"['盒裝衛生紙', '羽毛撣子', '羽毛撣子', '蝴蝶', '椅子', '杯子']",68,108129
Exp,None,4,1,0,1,a,a,None,1sy8ixw7o,n,lotionorange_CKW.png,手提包,557,700,557,None,錢包,"['盒裝衛生紙', '羽毛撣子', '羽毛撣子', '蝴蝶', '椅子', '杯子']",69,108129
Exp,None,1,1,0,1,l,l,None,1sy8ixw7o,n,pipe_LQN.png,錢包,452,700,452,None,原子筆,"['盒裝衛生紙', '羽毛撣子', '羽毛撣子', '蝴蝶', '椅子', '杯子']",70,108129
Exp,None,5,1,0,1,a,a,None,1sy8ixw7o,n,alarmblue_LQN.png,精裝書,619,700,619,None,梳子,"['盒裝衛生紙', '羽毛撣子', '羽毛撣子', '蝴蝶', '椅子', '杯子']",71,108129
Exp,None,1,1,1,1,l,l,None,1sy8ixw7o,y,forkorange_HKL.png,梳子,865,865,421,None,叉子,"['盒裝衛生紙', '羽毛撣子', '羽毛撣子', '蝴蝶', '椅子', '杯子']",72,108129
Exp,None,2,1,1,1,l,l,None,1sy8ixw7o,n,umbrella_Willy.png,梳子,561,865,561,None,雨傘,"['盒裝衛生紙', '羽毛撣子', '羽毛撣子', '蝴蝶', '椅子', '杯子']",73,108129
Exp,None,4,1,1,1,a,a,None,1sy8ixw7o,n,cookiejarbrown_HKL.png,原子筆,432,865,432,None,餅乾罐,"['盒裝衛生紙', '羽毛撣子', '羽毛撣子', '蝴蝶', '椅子', '杯子']",74,108129
Exp,None,5,1,1,1,a,a,None,1sy8ixw7o,n,coasterred_Jed.png,原子筆,410,865,410,None,鑷子,"['盒裝衛生紙', '羽毛撣子', '羽毛撣子', '蝴蝶', '椅子', '杯子']",75,108129
Exp,None,4,1,1,1,a,a,None,1sy8ixw7o,n,motorcycle_LQN.png,叉子,642,865,642,None,巴士,"['盒裝衛生紙', '羽毛撣子', '羽毛撣子', '蝴蝶', '椅子', '杯子']",76,108129
Exp,None,4,1,1,1,a,a,None,1sy8ixw7o,n,volleyballpink_LTY.png,雨傘,424,865,424,None,郵票,"['盒裝衛生紙', '羽毛撣子', '羽毛撣子', '蝴蝶', '椅子', '杯子']",77,108129
Exp,None,4,1,1,1,a,a,None,1sy8ixw7o,n,chalice_CKW.png,餅乾罐,404,865,404,None,書桌,"['盒裝衛生紙', '羽毛撣子', '羽毛撣子', '蝴蝶', '椅子', '杯子']",78,108129
Exp,None,2,1,1,1,l,l,None,1sy8ixw7o,n,icetrayred_LTY.png,郵票,327,865,327,None,門板,"['盒裝衛生紙', '羽毛撣子', '羽毛撣子', '蝴蝶', '椅子', '杯子']",79,108129
Exp,None,2,1,1,1,l,l,None,1sy8ixw7o,n,tvpurple_LTY.png,書桌,402,865,402,None,盒子,"['盒裝衛生紙', '羽毛撣子', '羽毛撣子', '蝴蝶', '椅子', '杯子']",80,108129
Exp,None,0,1,1,1,l,l,None,1sy8ixw7o,n,bonebrown_CKW.png,帽子,480,865,480,None,帽子,"['盒裝衛生紙', '羽毛撣子', '羽毛撣子', '蝴蝶', '椅子', '杯子']",81,108129
Exp,None,5,1,1,1,a,a,None,1sy8ixw7o,n,notepad_CJJ.png,郵票,502,865,502,None,記事本,"['盒裝衛生紙', '羽毛撣子', '羽毛撣子', '蝴蝶', '椅子', '杯子']",82,108129
Exp,None,5,1,1,1,a,a,None,1sy8ixw7o,n,icecreampurple_CHN.png,書桌,409,865,409,None,盒裝衛生紙,"['盒裝衛生紙', '羽毛撣子', '羽毛撣子', '蝴蝶', '椅子', '杯子']",83,108129
Exp,None,2,1,1,1,l,l,None,1sy8ixw7o,y,screw_CHN.png,記事本,913,913,454,None,螺絲釘,"['盒裝衛生紙', '羽毛撣子', '羽毛撣子', '蝴蝶', '椅子', '杯子']",84,108129
Exp,None,4,1,1,1,a,a,None,1sy8ixw7o,n,bat_CHN.png,帽子,362,913,362,None,球棒,"['盒裝衛生紙', '羽毛撣子', '羽毛撣子', '蝴蝶', '椅子', '杯子']",85,108129
Exp,None,2,1,1,1,l,l,None,1sy8ixw7o,n,cookiejar_HKL.png,螺絲釘,393,913,393,None,餅乾罐,"['盒裝衛生紙', '羽毛撣子', '羽毛撣子', '蝴蝶', '椅子', '杯子']",86,108129
Exp,None,0,1,1,1,l,l,None,1sy8ixw7o,n,skirtpink_CJJ.png,裙子,533,913,533,None,裙子,"['盒裝衛生紙', '羽毛撣子', '羽毛撣子', '蝴蝶', '椅子', '杯子']",87,108129
Exp,None,4,1,1,1,a,a,None,1sy8ixw7o,n,cup_CWL.png,螺絲釘,476,913,476,None,杯子,"['盒裝衛生紙', '羽毛撣子', '羽毛撣子', '蝴蝶', '椅子', '杯子']",88,108129
Exp,None,2,1,1,1,l,l,None,1sy8ixw7o,n,skirt_CJJ.png,裙子,426,913,426,None,裙子,"['盒裝衛生紙', '羽毛撣子', '羽毛撣子', '蝴蝶', '椅子', '杯子']",89,108129
Exp,None,0,1,1,1,l,l,None,1sy8ixw7o,n,helmetyellow_HKL.png,安全帽,369,913,369,None,安全帽,"['盒裝衛生紙', '羽毛撣子', '羽毛撣子', '蝴蝶', '椅子', '杯子']",90,108129
Exp,None,3,0,0,1,a,a,None,1sy8ixw7o,y,blouse_CJJ.png,杯子,804,804,389,None,襯衫,"['盒裝衛生紙', '羽毛撣子', '羽毛撣子', '蝴蝶', '椅子', '杯子']",91,108129
Exp,None,0,1,0,1,l,l,None,1sy8ixw7o,n,paperbag_CKW.png,旗幟,1539,804,1539,None,旗幟,"['盒裝衛生紙', '羽毛撣子', '羽毛撣子', '蝴蝶', '椅子', '杯子']",92,108129
Exp,None,2,1,0,1,l,l,None,1sy8ixw7o,n,frameyellow_CKW.png,襯衫,574,804,574,None,書籤,"['盒裝衛生紙', '羽毛撣子', '羽毛撣子', '蝴蝶', '椅子', '杯子']",93,108129
Exp,None,4,1,0,1,a,a,None,1sy8ixw7o,n,usb_CKW.png,安全帽,473,804,473,None,領帶,"['盒裝衛生紙', '羽毛撣子', '羽毛撣子', '蝴蝶', '椅子', '杯子']",94,108129
Exp,None,3,1,0,1,a,a,None,1sy8ixw7o,n,lego_LTY.png,旗幟,379,804,379,None,花朵,"['盒裝衛生紙', '羽毛撣子', '羽毛撣子', '蝴蝶', '椅子', '杯子']",95,108129
Exp,None,4,1,0,1,a,a,None,1sy8ixw7o,n,stapler_LQN.png,旗幟,920,804,516,None,被子,"['盒裝衛生紙', '羽毛撣子', '羽毛撣子', '蝴蝶', '椅子', '杯子']",96,108129
Exp,None,2,1,0,1,l,l,None,1sy8ixw7o,n,plasticspoon_Willy.png,花朵,341,804,341,None,塑膠湯匙,"['盒裝衛生紙', '羽毛撣子', '羽毛撣子', '蝴蝶', '椅子', '杯子']",97,108129
Exp,None,1,1,0,1,l,l,None,1sy8ixw7o,n,axeyellow_CJJ.png,塑膠湯匙,667,804,667,None,斧頭,"['盒裝衛生紙', '羽毛撣子', '羽毛撣子', '蝴蝶', '椅子', '杯子']",98,108129
Exp,None,4,1,0,1,a,a,None,1sy8ixw7o,n,checkbookblue_CJJ.png,花朵,465,804,465,None,支票簿,"['盒裝衛生紙', '羽毛撣子', '羽毛撣子', '蝴蝶', '椅子', '杯子']",99,108129
Exp,None,0,1,0,1,l,l,None,1sy8ixw7o,n,stickynote_LTY.png,瓶蓋,437,804,437,None,瓶蓋,"['盒裝衛生紙', '羽毛撣子', '羽毛撣子', '蝴蝶', '椅子', '杯子']",100,108129
Exp,None,2,1,0,1,l,l,None,1sy8ixw7o,n,rakebrown_CHN.png,支票簿,408,804,408,None,耙子,"['盒裝衛生紙', '羽毛撣子', '羽毛撣子', '蝴蝶', '椅子', '杯子']",101,108129
Exp,None,0,1,0,1,l,l,None,1sy8ixw7o,n,iceskate_Jed.png,鬧鐘,760,804,760,None,鬧鐘,"['盒裝衛生紙', '羽毛撣子', '羽毛撣子', '蝴蝶', '椅子', '杯子']",102,108129
Exp,None,0,0,0,0,l,l,None,1sy8ixw7o,n,yogamatgreen_Willy.png,瑜珈墊,396,804,396,None,瑜珈墊,"['盒裝衛生紙', '羽毛撣子', '羽毛撣子', '蝴蝶', '椅子', '杯子']",103,108129
Exp,None,5,1,0,1,a,a,None,1sy8ixw7o,n,notepadpink_CJJ.png,支票簿,449,804,449,None,記事本,"['盒裝衛生紙', '羽毛撣子', '羽毛撣子', '蝴蝶', '椅子', '杯子']",104,108129
Exp,None,1,1,0,1,l,l,None,1sy8ixw7o,n,spongepurple_CKW.png,記事本,547,804,547,None,枕頭,"['盒裝衛生紙', '羽毛撣子', '羽毛撣子', '蝴蝶', '椅子', '杯子']",105,108129
Exp,None,2,1,1,1,l,l,None,1sy8ixw7o,y,hammerpink_CJJ.png,記事本,675,675,406,None,錘子,"['盒裝衛生紙', '羽毛撣子', '羽毛撣子', '蝴蝶', '椅子', '杯子']",106,108129
Exp,None,2,1,1,1,l,l,None,1sy8ixw7o,n,tshirt_HKL.png,枕頭,371,675,371,None,T恤,"['盒裝衛生紙', '羽毛撣子', '羽毛撣子', '蝴蝶', '椅子', '杯子']",107,108129
Exp,None,5,1,1,1,a,a,None,1sy8ixw7o,n,eraseryellow_CKW.png,瑜珈墊,442,675,442,None,襪子,"['盒裝衛生紙', '羽毛撣子', '羽毛撣子', '蝴蝶', '椅子', '杯子']",108,108129
Exp,None,5,1,1,1,a,a,None,1sy8ixw7o,n,legoorange_LTY.png,記事本,354,675,354,None,花朵,"['盒裝衛生紙', '羽毛撣子', '羽毛撣子', '蝴蝶', '椅子', '杯子']",109,108129
Exp,None,3,1,1,1,a,a,None,1sy8ixw7o,n,stickgreen_LQN.png,T恤,523,675,523,None,小提琴,"['盒裝衛生紙', '羽毛撣子', '羽毛撣子', '蝴蝶', '椅子', '杯子']",110,108129
Exp,None,2,1,1,1,l,l,None,1sy8ixw7o,n,boombox_LTY.png,花朵,343,675,343,None,沙漏,"['盒裝衛生紙', '羽毛撣子', '羽毛撣子', '蝴蝶', '椅子', '杯子']",111,108129
Exp,None,5,1,1,1,a,a,None,1sy8ixw7o,n,blowdryerpurple_Jed.png,T恤,532,675,532,None,腰帶,"['盒裝衛生紙', '羽毛撣子', '羽毛撣子', '蝴蝶', '椅子', '杯子']",112,108129
Exp,None,5,1,1,1,a,a,None,1sy8ixw7o,n,gun_CKW.png,襪子,459,675,459,None,剪刀,"['盒裝衛生紙', '羽毛撣子', '羽毛撣子', '蝴蝶', '椅子', '杯子']",113,108129
Exp,None,3,1,1,1,a,a,None,1sy8ixw7o,n,deodorantyellow_Jed.png,沙漏,385,675,385,None,手錶,"['盒裝衛生紙', '羽毛撣子', '羽毛撣子', '蝴蝶', '椅子', '杯子']",114,108129
Exp,None,2,1,1,1,l,l,None,1sy8ixw7o,n,coatbuttonbrown_Willy.png,剪刀,484,675,484,None,外套鈕扣,"['盒裝衛生紙', '羽毛撣子', '羽毛撣子', '蝴蝶', '椅子', '杯子']",115,108129
Exp,None,4,1,1,1,a,a,None,1sy8ixw7o,n,baseball_LQN.png,腰帶,398,675,398,None,洗衣籃,"['盒裝衛生紙', '羽毛撣子', '羽毛撣子', '蝴蝶', '椅子', '杯子']",116,108129
Exp,None,2,0,1,0,l,l,None,1sy8ixw7o,n,sunglassesred_CJJ.png,外套鈕扣,463,675,463,None,網球拍,"['盒裝衛生紙', '羽毛撣子', '羽毛撣子', '蝴蝶', '椅子', '杯子']",117,108129
Exp,None,4,0,1,0,a,a,None,1sy8ixw7o,n,mp3playerbrown_Jed.png,手錶,1481,675,1481,None,盤子,"['盒裝衛生紙', '羽毛撣子', '羽毛撣子', '蝴蝶', '椅子', '杯子']",118,108129
Exp,None,2,1,1,1,l,l,None,1sy8ixw7o,n,pumpgreen_CKW.png,網球拍,2164,675,2164,None,褲子,"['盒裝衛生紙', '羽毛撣子', '羽毛撣子', '蝴蝶', '椅子', '杯子']",119,108129
Exp,None,5,1,1,1,a,a,None,1sy8ixw7o,n,charger_LTY.png,外套鈕扣,561,675,561,None,毛巾,"['盒裝衛生紙', '羽毛撣子', '羽毛撣子', '蝴蝶', '椅子', '杯子']",120,108129
Exp,None,4,1,1,1,a,a,None,1sy8ixw7o,n,paperbagred_CKW.png,網球拍,641,675,641,None,旗幟,"['盒裝衛生紙', '羽毛撣子', '羽毛撣子', '蝴蝶', '椅子', '杯子']",121,108129
Exp,None,0,1,1,1,l,l,None,1sy8ixw7o,n,purse_HKL.png,手提包,573,675,573,None,手提包,"['盒裝衛生紙', '羽毛撣子', '羽毛撣子', '蝴蝶', '椅子', '杯子']",122,108129
Exp,None,3,0,0,1,a,a,None,1sy8ixw7o,y,sodacangreen_HKL.png,毛巾,893,893,317,None,汽水罐,"['盒裝衛生紙', '羽毛撣子', '羽毛撣子', '蝴蝶', '椅子', '杯子']",123,108129
Exp,None,5,1,0,1,a,a,None,1sy8ixw7o,n,airplane_CHN.png,褲子,936,893,936,None,信用卡,"['盒裝衛生紙', '羽毛撣子', '羽毛撣子', '蝴蝶', '椅子', '杯子']",124,108129
Exp,None,4,1,0,1,a,a,None,1sy8ixw7o,n,batpink_CHN.png,旗幟,550,893,550,None,球棒,"['盒裝衛生紙', '羽毛撣子', '羽毛撣子', '蝴蝶', '椅子', '杯子']",125,108129
Exp,None,5,1,0,1,a,a,None,1sy8ixw7o,n,balloonpurple_HKL.png,旗幟,594,893,594,None,氣球,"['盒裝衛生紙', '羽毛撣子', '羽毛撣子', '蝴蝶', '椅子', '杯子']",126,108129
Exp,None,5,1,0,1,a,a,None,1sy8ixw7o,n,airplaneyellow_CHN.png,手提包,895,893,895,None,信用卡,"['盒裝衛生紙', '羽毛撣子', '羽毛撣子', '蝴蝶', '椅子', '杯子']",127,108129
Exp,None,4,1,0,1,a,a,None,1sy8ixw7o,n,key_LTY.png,信用卡,1011,893,1011,None,衣櫃,"['盒裝衛生紙', '羽毛撣子', '羽毛撣子', '蝴蝶', '椅子', '杯子']",128,108129
Exp,None,4,1,0,1,a,a,None,1sy8ixw7o,n,bow_CHN.png,球棒,609,893,609,None,鉛筆,"['盒裝衛生紙', '羽毛撣子', '羽毛撣子', '蝴蝶', '椅子', '杯子']",129,108129
Exp,None,2,1,0,1,l,l,None,1sy8ixw7o,n,axe_CJJ.png,衣櫃,310,893,310,None,斧頭,"['盒裝衛生紙', '羽毛撣子', '羽毛撣子', '蝴蝶', '椅子', '杯子']",130,108129
Exp,None,5,1,0,1,a,a,None,1sy8ixw7o,n,buckleyellow_Jed.png,氣球,413,893,413,None,打火機,"['盒裝衛生紙', '羽毛撣子', '羽毛撣子', '蝴蝶', '椅子', '杯子']",131,108129
Exp,None,3,1,0,1,a,a,None,1sy8ixw7o,n,rake_CHN.png,鉛筆,336,893,336,None,耙子,"['盒裝衛生紙', '羽毛撣子', '羽毛撣子', '蝴蝶', '椅子', '杯子']",132,108129
Exp,None,4,0,0,0,a,a,None,1sy8ixw7o,n,sunglasses_CJJ.png,鉛筆,1107,893,1107,None,網球拍,"['盒裝衛生紙', '羽毛撣子', '羽毛撣子', '蝴蝶', '椅子', '杯子']",133,108129
Exp,None,1,1,0,1,l,l,None,1sy8ixw7o,n,pump_CKW.png,網球拍,1103,893,1103,None,褲子,"['盒裝衛生紙', '羽毛撣子', '羽毛撣子', '蝴蝶', '椅子', '杯子']",134,108129
Exp,None,0,1,0,1,l,l,None,1sy8ixw7o,n,table_CWL.png,桌子,917,893,917,None,桌子,"['盒裝衛生紙', '羽毛撣子', '羽毛撣子', '蝴蝶', '椅子', '杯子']",135,108129
Exp,None,5,1,0,1,a,a,None,1sy8ixw7o,n,stick_LQN.png,打火機,544,893,544,None,小提琴,"['盒裝衛生紙', '羽毛撣子', '羽毛撣子', '蝴蝶', '椅子', '杯子']",136,108129
Exp,None,1,1,0,1,l,l,None,1sy8ixw7o,n,mousepad_Willy.png,小提琴,377,893,377,None,滑鼠墊,"['盒裝衛生紙', '羽毛撣子', '羽毛撣子', '蝴蝶', '椅子', '杯子']",137,108129
Exp,None,5,0,0,1,a,a,None,1sy8ixw7o,y,bone_CKW.png,網球拍,1109,1109,410,None,帽子,"['盒裝衛生紙', '羽毛撣子', '羽毛撣子', '蝴蝶', '椅子', '杯子']",138,108129
Exp,None,0,1,0,1,l,l,None,1sy8ixw7o,n,chairred_HKL.png,椅子,662,1109,662,None,椅子,"['盒裝衛生紙', '羽毛撣子', '羽毛撣子', '蝴蝶', '椅子', '杯子']",139,108129
Exp,None,1,1,0,1,l,l,None,1sy8ixw7o,n,chestblue_CHN.png,椅子,341,1109,341,None,寶箱,"['盒裝衛生紙', '羽毛撣子', '羽毛撣子', '蝴蝶', '椅子', '杯子']",140,108129
Exp,None,4,1,0,1,a,a,None,1sy8ixw7o,n,checkbook_CJJ.png,滑鼠墊,382,1109,382,None,支票簿,"['盒裝衛生紙', '羽毛撣子', '羽毛撣子', '蝴蝶', '椅子', '杯子']",141,108129
Exp,None,1,1,0,1,l,l,None,1sy8ixw7o,n,knife_HKL.png,支票簿,471,1109,471,None,刀子,"['盒裝衛生紙', '羽毛撣子', '羽毛撣子', '蝴蝶', '椅子', '杯子']",142,108129
Exp,None,3,1,0,1,a,a,None,1sy8ixw7o,n,wrench_HKL.png,寶箱,442,1109,442,None,板手,"['盒裝衛生紙', '羽毛撣子', '羽毛撣子', '蝴蝶', '椅子', '杯子']",143,108129
Exp,None,5,1,0,1,a,a,None,1sy8ixw7o,n,boat_LTY.png,椅子,709,1109,381,None,蝴蝶,"['盒裝衛生紙', '羽毛撣子', '羽毛撣子', '蝴蝶', '椅子', '杯子']",144,108129
Exp,None,3,1,0,1,a,a,None,1sy8ixw7o,n,lotion_CKW.png,刀子,521,1109,521,None,錢包,"['盒裝衛生紙', '羽毛撣子', '羽毛撣子', '蝴蝶', '椅子', '杯子']",145,108129
Exp,None,1,1,0,1,l,l,None,1sy8ixw7o,n,bicycle_CWL.png,錢包,445,1109,445,None,腳踏車,"['盒裝衛生紙', '羽毛撣子', '羽毛撣子', '蝴蝶', '椅子', '杯子']",146,108129
Exp,None,5,1,0,1,a,a,None,1sy8ixw7o,n,sawyello_Willy.png,刀子,402,1109,402,None,電鋸,"['盒裝衛生紙', '羽毛撣子', '羽毛撣子', '蝴蝶', '椅子', '杯子']",147,108129
Exp,None,4,1,0,1,a,a,None,1sy8ixw7o,n,plasticspoonorange_Willy.png,蝴蝶,334,1109,334,None,塑膠湯匙,"['盒裝衛生紙', '羽毛撣子', '羽毛撣子', '蝴蝶', '椅子', '杯子']",148,108129
Exp,None,0,1,0,1,l,l,None,1sy8ixw7o,n,buckle_Jed.png,打火機,392,1109,392,None,打火機,"['盒裝衛生紙', '羽毛撣子', '羽毛撣子', '蝴蝶', '椅子', '杯子']",149,108129
Exp,None,2,1,0,1,l,l,None,1sy8ixw7o,n,spring_LQN.png,塑膠湯匙,399,1109,399,None,吉他,"['盒裝衛生紙', '羽毛撣子', '羽毛撣子', '蝴蝶', '椅子', '杯子']",150,108129
Exp,None,5,1,0,1,a,a,None,1sy8ixw7o,n,helmet_HKL.png,腳踏車,357,1109,357,None,安全帽,"['盒裝衛生紙', '羽毛撣子', '羽毛撣子', '蝴蝶', '椅子', '杯子']",151,108129
Exp,None,3,1,0,1,a,a,None,1sy8ixw7o,n,baseballyellow_LQN.png,打火機,400,1109,400,None,洗衣籃,"['盒裝衛生紙', '羽毛撣子', '羽毛撣子', '蝴蝶', '椅子', '杯子']",152,108129
Exp,None,1,1,0,1,l,l,None,1sy8ixw7o,n,leggingspurple_Willy.png,洗衣籃,343,1109,343,None,緊身褲,"['盒裝衛生紙', '羽毛撣子', '羽毛撣子', '蝴蝶', '椅子', '杯子']",153,108129
Exp,None,4,0,0,1,a,a,None,1sy8ixw7o,y,volleyball_LTY.png,吉他,1101,1101,475,None,郵票,"['盒裝衛生紙', '羽毛撣子', '羽毛撣子', '蝴蝶', '椅子', '杯子']",154,108129
Exp,None,4,1,0,1,a,a,None,1sy8ixw7o,n,bowpink_CHN.png,安全帽,528,1101,528,None,鉛筆,"['盒裝衛生紙', '羽毛撣子', '羽毛撣子', '蝴蝶', '椅子', '杯子']",155,108129
Exp,None,5,1,0,1,a,a,None,1sy8ixw7o,n,airfreshener_CJJ.png,安全帽,606,1101,606,None,空氣清新劑,"['盒裝衛生紙', '羽毛撣子', '羽毛撣子', '蝴蝶', '椅子', '杯子']",156,108129
Exp,None,3,1,0,1,a,a,None,1sy8ixw7o,n,camera_Jed.png,郵票,515,1101,515,None,鏟子,"['盒裝衛生紙', '羽毛撣子', '羽毛撣子', '蝴蝶', '椅子', '杯子']",157,108129
Exp,None,3,1,0,1,a,a,None,1sy8ixw7o,n,motorcycleblue_LQN.png,鉛筆,407,1101,407,None,巴士,"['盒裝衛生紙', '羽毛撣子', '羽毛撣子', '蝴蝶', '椅子', '杯子']",158,108129
Exp,None,1,1,0,1,l,l,None,1sy8ixw7o,n,boomboxred_LTY.png,巴士,330,1101,330,None,沙漏,"['盒裝衛生紙', '羽毛撣子', '羽毛撣子', '蝴蝶', '椅子', '杯子']",159,108129
Exp,None,4,1,0,1,a,a,None,1sy8ixw7o,n,shortsyellow_CJJ.png,空氣清新劑,353,1101,353,None,短褲,"['盒裝衛生紙', '羽毛撣子', '羽毛撣子', '蝴蝶', '椅子', '杯子']",160,108129
Exp,None,4,1,0,1,a,a,None,1sy8ixw7o,n,duckblue_CHN.png,鏟子,513,1101,513,None,夾克,"['盒裝衛生紙', '羽毛撣子', '羽毛撣子', '蝴蝶', '椅子', '杯子']",161,108129
Exp,None,3,1,0,1,a,a,None,1sy8ixw7o,n,magnet_LQN.png,沙漏,399,1101,399,None,瓶子,"['盒裝衛生紙', '羽毛撣子', '羽毛撣子', '蝴蝶', '椅子', '杯子']",162,108129
Exp,None,2,1,0,1,l,l,None,1sy8ixw7o,n,stickgreen_LQN.png,夾克,317,1101,317,None,小提琴,"['盒裝衛生紙', '羽毛撣子', '羽毛撣子', '蝴蝶', '椅子', '杯子']",163,108129
Exp,None,4,1,0,1,a,a,None,1sy8ixw7o,n,wrenchgreen_HKL.png,短褲,370,1101,370,None,板手,"['盒裝衛生紙', '羽毛撣子', '羽毛撣子', '蝴蝶', '椅子', '杯子']",164,108129
Exp,None,2,1,0,1,l,l,None,1sy8ixw7o,n,sofa_HKL.png,小提琴,543,1101,543,None,沙發,"['盒裝衛生紙', '羽毛撣子', '羽毛撣子', '蝴蝶', '椅子', '杯子']",165,108129
Exp,None,0,1,0,1,l,l,None,1sy8ixw7o,n,stickynoteblue_LTY.png,瓶蓋,381,1101,381,None,瓶蓋,"['盒裝衛生紙', '羽毛撣子', '羽毛撣子', '蝴蝶', '椅子', '杯子']",166,108129
Exp,None,4,1,0,1,a,a,None,1sy8ixw7o,n,blowdryer_Jed.png,小提琴,339,1101,339,None,腰帶,"['盒裝衛生紙', '羽毛撣子', '羽毛撣子', '蝴蝶', '椅子', '杯子']",167,108129
Exp,None,5,0,0,0,a,a,None,1sy8ixw7o,n,balloon_HKL.png,小提琴,406,1101,406,None,氣球,"['盒裝衛生紙', '羽毛撣子', '羽毛撣子', '蝴蝶', '椅子', '杯子']",168,108129
Exp,None,1,1,0,1,l,l,None,1sy8ixw7o,n,umbrellared_Willy.png,氣球,364,1101,364,None,雨傘,"['盒裝衛生紙', '羽毛撣子', '羽毛撣子', '蝴蝶', '椅子', '杯子']",169,108129
Exp,None,3,1,0,1,a,a,None,1sy8ixw7o,n,bicyclered_CWL.png,腰帶,419,1101,419,None,腳踏車,"['盒裝衛生紙', '羽毛撣子', '羽毛撣子', '蝴蝶', '椅子', '杯子']",170,108129
Exp,None,4,1,0,1,a,a,None,1sy8ixw7o,y,fishgreen_Willy.png,腰帶,265,1101,265,None,魚,"['盒裝衛生紙', '羽毛撣子', '羽毛撣子', '蝴蝶', '椅子', '杯子']",171,108129
Exp,None,4,1,0,1,a,a,None,1sy8ixw7o,n,chalkpurple_LQN.png,氣球,438,1101,438,None,卡車,"['盒裝衛生紙', '羽毛撣子', '羽毛撣子', '蝴蝶', '椅子', '杯子']",172,108129
Exp,None,2,1,0,1,l,l,None,1sy8ixw7o,n,bowlpurple_CWL.png,魚,309,1101,309,None,碗,"['盒裝衛生紙', '羽毛撣子', '羽毛撣子', '蝴蝶', '椅子', '杯子']",173,108129
Exp,None,0,1,0,1,l,l,None,1sy8ixw7o,n,hockeystick_Jed.png,花瓶,333,1101,333,None,花瓶,"['盒裝衛生紙', '羽毛撣子', '羽毛撣子', '蝴蝶', '椅子', '杯子']",174,108129
Exp,None,4,1,0,1,a,a,None,1sy8ixw7o,n,slippers_Willy.png,魚,340,1101,340,None,拖鞋,"['盒裝衛生紙', '羽毛撣子', '羽毛撣子', '蝴蝶', '椅子', '杯子']",175,108129
Exp,None,5,1,0,1,a,a,None,1sy8ixw7o,n,book_CWL.png,魚,400,1101,400,None,精裝書,"['盒裝衛生紙', '羽毛撣子', '羽毛撣子', '蝴蝶', '椅子', '杯子']",176,108129
Exp,None,2,1,0,1,l,l,None,1sy8ixw7o,n,tennisracketgreen_CWL.png,拖鞋,441,1101,441,None,網球拍,"['盒裝衛生紙', '羽毛撣子', '羽毛撣子', '蝴蝶', '椅子', '杯子']",177,108129
Exp,None,4,1,0,1,a,a,None,1sy8ixw7o,n,extension_CHN.png,花瓶,1207,1101,1207,None,車子,"['盒裝衛生紙', '羽毛撣子', '羽毛撣子', '蝴蝶', '椅子', '杯子']",178,108129
Exp,None,2,1,0,1,l,l,None,1sy8ixw7o,n,camerapink_Jed.png,網球拍,1446,1101,1446,None,鏟子,"['盒裝衛生紙', '羽毛撣子', '羽毛撣子', '蝴蝶', '椅子', '杯子']",179,108129
Exp,None,0,1,0,1,l,l,None,1sy8ixw7o,n,toothpaste_CKW.png,衣架,1131,1101,1131,None,衣架,"['盒裝衛生紙', '羽毛撣子', '羽毛撣子', '蝴蝶', '椅子', '杯子']",180,108129
Exp,None,5,1,0,1,a,a,None,1sy8ixw7o,n,lipstickbrown_CJJ.png,精裝書,401,1101,401,None,口紅,"['盒裝衛生紙', '羽毛撣子', '羽毛撣子', '蝴蝶', '椅子', '杯子']",181,108129
Exp,None,3,1,0,1,a,a,None,1sy8ixw7o,n,hockeystickgreen_Jed.png,鏟子,390,1101,390,None,花瓶,"['盒裝衛生紙', '羽毛撣子', '羽毛撣子', '蝴蝶', '椅子', '杯子']",182,108129
Exp,None,2,1,0,1,l,l,None,1sy8ixw7o,n,leggings_Willy.png,口紅,324,1101,324,None,緊身褲,"['盒裝衛生紙', '羽毛撣子', '羽毛撣子', '蝴蝶', '椅子', '杯子']",183,108129
Exp,None,2,1,0,1,l,l,None,1sy8ixw7o,n,keyblue_LTY.png,花瓶,333,1101,333,None,衣櫃,"['盒裝衛生紙', '羽毛撣子', '羽毛撣子', '蝴蝶', '椅子', '杯子']",184,108129
Exp,None,4,1,0,1,a,a,None,1sy8ixw7o,n,phone_Jed.png,口紅,346,1101,346,None,手鐲,"['盒裝衛生紙', '羽毛撣子', '羽毛撣子', '蝴蝶', '椅子', '杯子']",185,108129
Exp,None,3,1,0,1,a,a,None,1sy8ixw7o,n,blousegreen_CJJ.png,緊身褲,390,1101,390,None,襯衫,"['盒裝衛生紙', '羽毛撣子', '羽毛撣子', '蝴蝶', '椅子', '杯子']",186,108129
Exp,None,3,1,0,1,a,a,None,1sy8ixw7o,n,cuppink_CWL.png,衣櫃,563,1101,563,None,杯子,"['盒裝衛生紙', '羽毛撣子', '羽毛撣子', '蝴蝶', '椅子', '杯子']",187,108129
Exp,None,5,1,0,1,a,a,None,1sy8ixw7o,n,chair_HKL.png,緊身褲,338,1101,338,None,椅子,"['盒裝衛生紙', '羽毛撣子', '羽毛撣子', '蝴蝶', '椅子', '杯子']",188,108129
Exp,None,4,1,0,1,a,a,None,1sy8ixw7o,n,binorange_CHN.png,手鐲,347,1101,347,None,蝴蝶,"['盒裝衛生紙', '羽毛撣子', '羽毛撣子', '蝴蝶', '椅子', '杯子']",189,108129
Exp,None,4,1,0,1,a,a,None,1sy8ixw7o,n,featherdusterbrown_CWL.png,襯衫,306,1101,306,None,羽毛撣子,"['盒裝衛生紙', '羽毛撣子', '羽毛撣子', '蝴蝶', '椅子', '杯子']",190,108129
Exp,None,0,1,0,1,l,l,None,1sy8ixw7o,n,featherduster_CWL.png,羽毛撣子,431,1101,431,None,羽毛撣子,"['盒裝衛生紙', '羽毛撣子', '羽毛撣子', '蝴蝶', '椅子', '杯子']",191,108129
Exp,None,2,1,0,1,l,l,None,1sy8ixw7o,n,icecream_CHN.png,羽毛撣子,342,1101,342,None,盒裝衛生紙,"['盒裝衛生紙', '羽毛撣子', '羽毛撣子', '蝴蝶', '椅子', '杯子']",192,108129
Post,gender,2,0,0,1,l,l,None,1sy8ixw7o,n,icecream_CHN.png,羽毛撣子,2276,1101,342,None,盒裝衛生紙,"['盒裝衛生紙', '羽毛撣子', '羽毛撣子', '蝴蝶', '椅子', '杯子']",192,108129
Post,birth_12,2,0,0,1,l,l,None,1sy8ixw7o,n,icecream_CHN.png,羽毛撣子,5937,1101,342,None,盒裝衛生紙,"['盒裝衛生紙', '羽毛撣子', '羽毛撣子', '蝴蝶', '椅子', '杯子']",192,108129
Post,birth_3,2,0,0,1,l,l,None,1sy8ixw7o,n,icecream_CHN.png,羽毛撣子,8542,1101,342,None,盒裝衛生紙,"['盒裝衛生紙', '羽毛撣子', '羽毛撣子', '蝴蝶', '椅子', '杯子']",192,108129
Post,birth_4,2,0,0,1,l,l,None,1sy8ixw7o,n,icecream_CHN.png,羽毛撣子,1400,1101,342,None,盒裝衛生紙,"['盒裝衛生紙', '羽毛撣子', '羽毛撣子', '蝴蝶', '椅子', '杯子']",192,108129
consent,None,None,NA,None,None,None,None,None,bjhye9mg7,None,None,None,4032,None,None,None,None,None,None,107821
Prac,None,None,1,None,1,a,a,None,bjhye9mg7,n,kangaroo_1.png,[],532,None,532,None,文件夾,"['橘子', '拖把', '檸檬', '兔子', '香蕉', '時鐘']",1,107821
Prac,None,None,1,None,1,a,a,None,bjhye9mg7,n,banana green.png,[],525,None,525,None,李子,"['橘子', '拖把', '檸檬', '兔子', '香蕉', '時鐘']",2,107821
Prac,None,None,1,None,1,a,a,None,bjhye9mg7,n,clock_300.png,[],497,None,497,None,金字塔,"['橘子', '拖把', '檸檬', '兔子', '香蕉', '時鐘']",3,107821
Prac,None,None,1,None,1,l,l,None,bjhye9mg7,n,monkeyorange_1_240.png,[],474,None,474,None,猴子,"['橘子', '拖把', '檸檬', '兔子', '香蕉', '時鐘']",4,107821
Prac,None,None,1,None,1,l,l,None,bjhye9mg7,n,kangaroo_1.png,[],374,None,374,None,袋鼠,"['橘子', '拖把', '檸檬', '兔子', '香蕉', '時鐘']",5,107821
Prac,None,1,1,None,1,l,l,None,bjhye9mg7,n,broom_2.png,袋鼠,426,None,426,None,掃帚,"['橘子', '拖把', '檸檬', '兔子', '香蕉', '時鐘']",6,107821
Prac,None,4,1,None,1,a,a,None,bjhye9mg7,n,clock_300.png,金字塔,1024,None,1024,None,時鐘,"['橘子', '拖把', '檸檬', '兔子', '香蕉', '時鐘']",7,107821
Prac,None,2,0,0,1,l,l,None,bjhye9mg7,y,banana green.png,掃帚,1018,1018,425,None,香蕉,"['橘子', '拖把', '檸檬', '兔子', '香蕉', '時鐘']",8,107821
Prac,None,2,1,0,1,l,l,None,bjhye9mg7,n,monkeyorange_1_240.png,時鐘,490,1018,490,None,兔子,"['橘子', '拖把', '檸檬', '兔子', '香蕉', '時鐘']",9,107821
Prac,None,0,1,0,1,l,l,None,bjhye9mg7,n,orangeorange_1.png,檸檬,424,1018,424,None,檸檬,"['橘子', '拖把', '檸檬', '兔子', '香蕉', '時鐘']",10,107821
Prac,None,3,1,0,1,a,a,None,bjhye9mg7,n,broom_2.png,香蕉,675,1018,675,None,拖把,"['橘子', '拖把', '檸檬', '兔子', '香蕉', '時鐘']",11,107821
Prac,None,3,1,0,1,a,a,None,bjhye9mg7,n,orangeorange_1.png,兔子,560,1018,560,None,橘子,"['橘子', '拖把', '檸檬', '兔子', '香蕉', '時鐘']",12,107821
Exp,None,3,1,0,1,l,l,None,bjhye9mg7,n,bowl_CWL.png,[],472,1018,472,None,碗,"['鬧鐘', '打火機', '沙發', '圍巾', '支票簿', '手錶']",1,107821
Exp,None,3,1,0,1,l,l,None,bjhye9mg7,n,rake_CHN.png,[],388,1018,388,None,耙子,"['鬧鐘', '打火機', '沙發', '圍巾', '支票簿', '手錶']",2,107821
Exp,None,3,1,0,1,l,l,None,bjhye9mg7,n,book_CWL.png,[],419,1018,419,None,精裝書,"['鬧鐘', '打火機', '沙發', '圍巾', '支票簿', '手錶']",3,107821
Exp,None,3,1,0,1,l,l,None,bjhye9mg7,n,purse_HKL.png,[],519,1018,519,None,手提包,"['鬧鐘', '打火機', '沙發', '圍巾', '支票簿', '手錶']",4,107821
Exp,None,3,1,0,1,l,l,None,bjhye9mg7,n,featherduster_CWL.png,[],601,1018,601,None,羽毛撣子,"['鬧鐘', '打火機', '沙發', '圍巾', '支票簿', '手錶']",5,107821
Exp,None,5,1,0,1,a,a,None,bjhye9mg7,n,icecream_CHN.png,碗,650,1018,650,None,盒裝衛生紙,"['鬧鐘', '打火機', '沙發', '圍巾', '支票簿', '手錶']",6,107821
Exp,None,5,1,1,0,a,a,None,bjhye9mg7,y,screwdriverpurple_Willy.png,耙子,2189,2189,804,None,螺絲起子,"['鬧鐘', '打火機', '沙發', '圍巾', '支票簿', '手錶']",7,107821
Exp,None,2,1,1,1,l,l,None,bjhye9mg7,n,magnet_LQN.png,盒裝衛生紙,519,2189,519,None,瓶子,"['鬧鐘', '打火機', '沙發', '圍巾', '支票簿', '手錶']",8,107821
Exp,None,5,1,1,1,a,a,None,bjhye9mg7,n,chaliceorange_CKW.png,手提包,436,2189,436,None,書桌,"['鬧鐘', '打火機', '沙發', '圍巾', '支票簿', '手錶']",9,107821
Exp,None,1,1,1,1,l,l,None,bjhye9mg7,n,stickgreen_LQN.png,書桌,437,2189,437,None,小提琴,"['鬧鐘', '打火機', '沙發', '圍巾', '支票簿', '手錶']",10,107821
Exp,None,1,1,1,1,l,l,None,bjhye9mg7,n,lampblue_CWL.png,小提琴,456,2189,456,None,桌燈,"['鬧鐘', '打火機', '沙發', '圍巾', '支票簿', '手錶']",11,107821
Exp,None,2,1,1,1,l,l,None,bjhye9mg7,n,spongepurple_CKW.png,小提琴,742,2189,742,None,枕頭,"['鬧鐘', '打火機', '沙發', '圍巾', '支票簿', '手錶']",12,107821
Exp,None,0,1,1,1,l,l,None,bjhye9mg7,n,bicycle_CWL.png,腳踏車,769,2189,769,None,腳踏車,"['鬧鐘', '打火機', '沙發', '圍巾', '支票簿', '手錶']",13,107821
Exp,None,3,1,1,1,a,a,None,bjhye9mg7,n,charger_LTY.png,桌燈,602,2189,602,None,毛巾,"['鬧鐘', '打火機', '沙發', '圍巾', '支票簿', '手錶']",14,107821
Exp,None,0,1,1,1,l,l,None,bjhye9mg7,n,rakebrown_CHN.png,耙子,681,2189,681,None,耙子,"['鬧鐘', '打火機', '沙發', '圍巾', '支票簿', '手錶']",15,107821
Exp,None,4,1,1,1,a,a,None,bjhye9mg7,n,purseblue_HKL.png,枕頭,445,2189,445,None,手提包,"['鬧鐘', '打火機', '沙發', '圍巾', '支票簿', '手錶']",16,107821
Exp,None,2,1,1,1,l,l,None,bjhye9mg7,n,legoorange_LTY.png,耙子,450,2189,450,None,花朵,"['鬧鐘', '打火機', '沙發', '圍巾', '支票簿', '手錶']",17,107821
Exp,None,0,1,1,1,l,l,None,bjhye9mg7,n,coatbuttonbrown_Willy.png,外套鈕扣,374,2189,374,None,外套鈕扣,"['鬧鐘', '打火機', '沙發', '圍巾', '支票簿', '手錶']",18,107821
Exp,None,4,1,1,1,a,a,None,bjhye9mg7,n,goggles_CHN.png,耙子,437,2189,437,None,支票,"['鬧鐘', '打火機', '沙發', '圍巾', '支票簿', '手錶']",19,107821
Exp,None,5,1,1,1,a,a,None,bjhye9mg7,n,blousegreen_CJJ.png,耙子,549,2189,549,None,襯衫,"['鬧鐘', '打火機', '沙發', '圍巾', '支票簿', '手錶']",20,107821
Exp,None,2,1,1,1,l,l,None,bjhye9mg7,n,sawyello_Willy.png,支票,593,2189,593,None,電鋸,"['鬧鐘', '打火機', '沙發', '圍巾', '支票簿', '手錶']",21,107821
Exp,None,1,1,1,1,l,l,None,bjhye9mg7,n,scarf_Willy.png,電鋸,409,2189,409,None,圍巾,"['鬧鐘', '打火機', '沙發', '圍巾', '支票簿', '手錶']",22,107821
Exp,None,1,1,1,1,l,l,None,bjhye9mg7,n,hockeystick_Jed.png,圍巾,403,2189,403,None,花瓶,"['鬧鐘', '打火機', '沙發', '圍巾', '支票簿', '手錶']",23,107821
Exp,None,5,1,1,1,a,a,None,bjhye9mg7,y,screwyellow_CHN.png,支票,2284,2284,374,None,螺絲釘,"['鬧鐘', '打火機', '沙發', '圍巾', '支票簿', '手錶']",24,107821
Exp,None,4,1,1,1,a,a,None,bjhye9mg7,n,binorange_CHN.png,電鋸,466,2284,466,None,蝴蝶,"['鬧鐘', '打火機', '沙發', '圍巾', '支票簿', '手錶']",25,107821
Exp,None,5,1,1,1,a,a,None,bjhye9mg7,n,usb_CKW.png,電鋸,742,2284,742,None,領帶,"['鬧鐘', '打火機', '沙發', '圍巾', '支票簿', '手錶']",26,107821
Exp,None,3,1,1,1,a,a,None,bjhye9mg7,n,skirt_CJJ.png,螺絲釘,551,2284,551,None,裙子,"['鬧鐘', '打火機', '沙發', '圍巾', '支票簿', '手錶']",27,107821
Exp,None,5,1,1,1,a,a,None,bjhye9mg7,n,lotionorange_CKW.png,花瓶,797,2284,797,None,錢包,"['鬧鐘', '打火機', '沙發', '圍巾', '支票簿', '手錶']",28,107821
Exp,None,4,1,1,1,a,a,None,bjhye9mg7,n,baseball_LQN.png,蝴蝶,504,2284,504,None,洗衣籃,"['鬧鐘', '打火機', '沙發', '圍巾', '支票簿', '手錶']",29,107821
Exp,None,3,1,1,1,a,a,None,bjhye9mg7,n,airplane_CHN.png,裙子,483,2284,483,None,信用卡,"['鬧鐘', '打火機', '沙發', '圍巾', '支票簿', '手錶']",30,107821
Exp,None,4,1,1,1,a,a,None,bjhye9mg7,n,bowpink_CHN.png,裙子,602,2284,602,None,鉛筆,"['鬧鐘', '打火機', '沙發', '圍巾', '支票簿', '手錶']",31,107821
Exp,None,0,1,1,1,l,l,None,bjhye9mg7,n,forkorange_HKL.png,叉子,524,2284,524,None,叉子,"['鬧鐘', '打火機', '沙發', '圍巾', '支票簿', '手錶']",32,107821
Exp,None,5,1,1,1,a,a,None,bjhye9mg7,n,frame_CKW.png,錢包,457,2284,457,None,書籤,"['鬧鐘', '打火機', '沙發', '圍巾', '支票簿', '手錶']",33,107821
Exp,None,2,1,1,1,l,l,None,bjhye9mg7,n,gloveblue_CWL.png,叉子,654,2284,654,None,手套,"['鬧鐘', '打火機', '沙發', '圍巾', '支票簿', '手錶']",34,107821
Exp,None,1,1,1,1,l,l,None,bjhye9mg7,n,airfreshenerorange_CJJ.png,手套,444,2284,444,None,空氣清新劑,"['鬧鐘', '打火機', '沙發', '圍巾', '支票簿', '手錶']",35,107821
Exp,None,4,1,1,1,a,a,None,bjhye9mg7,n,highlighter_Jed.png,叉子,681,2284,681,None,毛線球,"['鬧鐘', '打火機', '沙發', '圍巾', '支票簿', '手錶']",36,107821
Exp,None,0,1,1,1,l,l,None,bjhye9mg7,n,bow_CHN.png,鉛筆,796,2284,796,None,鉛筆,"['鬧鐘', '打火機', '沙發', '圍巾', '支票簿', '手錶']",37,107821
Exp,None,2,0,1,0,l,l,None,bjhye9mg7,n,duck_CHN.png,毛線球,636,2284,636,None,夾克,"['鬧鐘', '打火機', '沙發', '圍巾', '支票簿', '手錶']",38,107821
Exp,None,4,1,1,1,a,a,None,bjhye9mg7,n,plasticspoon_Willy.png,空氣清新劑,486,2284,486,None,塑膠湯匙,"['鬧鐘', '打火機', '沙發', '圍巾', '支票簿', '手錶']",39,107821
Exp,None,4,1,1,1,a,a,None,bjhye9mg7,y,plushyblue_LTY.png,毛線球,1877,1877,387,None,指甲銼,"['鬧鐘', '打火機', '沙發', '圍巾', '支票簿', '手錶']",40,107821
Exp,None,1,1,1,1,l,l,None,bjhye9mg7,n,gunpink_CKW.png,指甲銼,650,1877,650,None,剪刀,"['鬧鐘', '打火機', '沙發', '圍巾', '支票簿', '手錶']",41,107821
Exp,None,2,1,1,1,l,l,None,bjhye9mg7,n,wrench_HKL.png,指甲銼,557,1877,557,None,板手,"['鬧鐘', '打火機', '沙發', '圍巾', '支票簿', '手錶']",42,107821
Exp,None,1,1,1,1,l,l,None,bjhye9mg7,n,gun_CKW.png,板手,457,1877,457,None,剪刀,"['鬧鐘', '打火機', '沙發', '圍巾', '支票簿', '手錶']",43,107821
Exp,None,1,1,1,1,l,l,None,bjhye9mg7,n,boombox_LTY.png,剪刀,679,1877,679,None,沙漏,"['鬧鐘', '打火機', '沙發', '圍巾', '支票簿', '手錶']",44,107821
Exp,None,1,1,1,1,l,l,None,bjhye9mg7,n,baseballyellow_LQN.png,沙漏,413,1877,413,None,洗衣籃,"['鬧鐘', '打火機', '沙發', '圍巾', '支票簿', '手錶']",45,107821
Exp,None,5,1,1,1,a,a,None,bjhye9mg7,n,volleyball_LTY.png,剪刀,522,1877,522,None,郵票,"['鬧鐘', '打火機', '沙發', '圍巾', '支票簿', '手錶']",46,107821
Exp,None,0,1,1,1,l,l,None,bjhye9mg7,n,bowlpurple_CWL.png,碗,704,1877,704,None,碗,"['鬧鐘', '打火機', '沙發', '圍巾', '支票簿', '手錶']",47,107821
Exp,None,1,1,1,1,l,l,None,bjhye9mg7,n,sponge_CKW.png,碗,970,1877,733,None,枕頭,"['鬧鐘', '打火機', '沙發', '圍巾', '支票簿', '手錶']",48,107821
Exp,None,3,1,1,1,a,a,None,bjhye9mg7,n,helmetyellow_HKL.png,郵票,968,1877,968,None,安全帽,"['鬧鐘', '打火機', '沙發', '圍巾', '支票簿', '手錶']",49,107821
Exp,None,2,1,1,1,l,l,None,bjhye9mg7,n,camera_Jed.png,枕頭,571,1877,571,None,鏟子,"['鬧鐘', '打火機', '沙發', '圍巾', '支票簿', '手錶']",50,107821
Exp,None,2,1,1,1,l,l,None,bjhye9mg7,n,pumpgreen_CKW.png,安全帽,454,1877,454,None,褲子,"['鬧鐘', '打火機', '沙發', '圍巾', '支票簿', '手錶']",51,107821
Exp,None,3,1,1,1,a,a,None,bjhye9mg7,n,deodorantyellow_Jed.png,安全帽,825,1877,825,None,手錶,"['鬧鐘', '打火機', '沙發', '圍巾', '支票簿', '手錶']",52,107821
Exp,None,1,1,1,1,l,l,None,bjhye9mg7,n,airfreshener_CJJ.png,手錶,386,1877,386,None,空氣清新劑,"['鬧鐘', '打火機', '沙發', '圍巾', '支票簿', '手錶']",53,107821
Exp,None,2,0,1,0,l,l,None,bjhye9mg7,n,yogamatgreen_Willy.png,手錶,528,1877,528,None,瑜珈墊,"['鬧鐘', '打火機', '沙發', '圍巾', '支票簿', '手錶']",54,107821
Exp,None,3,0,1,0,a,a,None,bjhye9mg7,n,bone_CKW.png,手錶,463,1877,463,None,帽子,"['鬧鐘', '打火機', '沙發', '圍巾', '支票簿', '手錶']",55,107821
Exp,None,1,1,1,1,l,l,None,bjhye9mg7,n,glove_CWL.png,帽子,405,1877,405,None,手套,"['鬧鐘', '打火機', '沙發', '圍巾', '支票簿', '手錶']",56,107821
Exp,None,0,1,1,1,l,l,None,bjhye9mg7,y,featherdusterbrown_CWL.png,羽毛撣子,1713,1713,510,None,羽毛撣子,"['鬧鐘', '打火機', '沙發', '圍巾', '支票簿', '手錶']",57,107821
Exp,None,2,1,1,1,l,l,None,bjhye9mg7,n,stapler_LQN.png,手套,696,1713,696,None,被子,"['鬧鐘', '打火機', '沙發', '圍巾', '支票簿', '手錶']",58,107821
Exp,None,2,1,1,1,l,l,None,bjhye9mg7,n,tv_LTY.png,羽毛撣子,501,1713,501,None,盒子,"['鬧鐘', '打火機', '沙發', '圍巾', '支票簿', '手錶']",59,107821
Exp,None,5,1,1,1,a,a,None,bjhye9mg7,n,fork_HKL.png,帽子,584,1713,584,None,叉子,"['鬧鐘', '打火機', '沙發', '圍巾', '支票簿', '手錶']",60,107821
Exp,None,1,0,1,0,l,l,None,bjhye9mg7,n,sunglasses_CJJ.png,叉子,643,1713,643,None,網球拍,"['鬧鐘', '打火機', '沙發', '圍巾', '支票簿', '手錶']",61,107821
Exp,None,1,0,1,0,l,l,None,bjhye9mg7,n,motorcycleblue_LQN.png,網球拍,765,1713,765,None,巴士,"['鬧鐘', '打火機', '沙發', '圍巾', '支票簿', '手錶']",62,107821
Exp,None,0,1,1,1,l,l,None,bjhye9mg7,n,leggings_Willy.png,緊身褲,445,1713,445,None,緊身褲,"['鬧鐘', '打火機', '沙發', '圍巾', '支票簿', '手錶']",63,107821
Exp,None,5,0,1,0,a,a,None,bjhye9mg7,n,mousepadred_Willy.png,盒子,736,1713,736,None,滑鼠墊,"['鬧鐘', '打火機', '沙發', '圍巾', '支票簿', '手錶']",64,107821
Exp,None,2,1,1,1,l,l,None,bjhye9mg7,n,stickynoteblue_LTY.png,緊身褲,1071,1713,1071,None,瓶蓋,"['鬧鐘', '打火機', '沙發', '圍巾', '支票簿', '手錶']",65,107821
Exp,None,5,1,1,1,a,a,None,bjhye9mg7,n,coasterred_Jed.png,網球拍,615,1713,615,None,鑷子,"['鬧鐘', '打火機', '沙發', '圍巾', '支票簿', '手錶']",66,107821
Exp,None,3,1,1,1,a,a,None,bjhye9mg7,n,mp3player_Jed.png,滑鼠墊,448,1713,448,None,盤子,"['鬧鐘', '打火機', '沙發', '圍巾', '支票簿', '手錶']",67,107821
Exp,None,5,1,1,1,a,a,None,bjhye9mg7,n,axeyellow_CJJ.png,緊身褲,724,1713,724,None,斧頭,"['鬧鐘', '打火機', '沙發', '圍巾', '支票簿', '手錶']",68,107821
Exp,None,0,1,1,1,l,l,None,bjhye9mg7,n,saw_Willy.png,電鋸,481,1713,481,None,電鋸,"['鬧鐘', '打火機', '沙發', '圍巾', '支票簿', '手錶']",69,107821
Exp,None,5,1,1,1,a,a,None,bjhye9mg7,n,stickgreen_LQN.png,瓶蓋,977,1713,977,None,小提琴,"['鬧鐘', '打火機', '沙發', '圍巾', '支票簿', '手錶']",70,107821
Exp,None,4,1,1,1,a,a,None,bjhye9mg7,n,lamp_CWL.png,盤子,374,1713,374,None,桌燈,"['鬧鐘', '打火機', '沙發', '圍巾', '支票簿', '手錶']",71,107821
Exp,None,4,0,0,1,a,a,None,bjhye9mg7,y,cup_CWL.png,斧頭,1930,1930,470,None,杯子,"['鬧鐘', '打火機', '沙發', '圍巾', '支票簿', '手錶']",72,107821
Exp,None,4,1,0,1,a,a,None,bjhye9mg7,n,drainplug_LQN.png,電鋸,1717,1930,1717,None,長笛,"['鬧鐘', '打火機', '沙發', '圍巾', '支票簿', '手錶']",73,107821
Exp,None,5,1,0,1,a,a,None,bjhye9mg7,n,slippersblue_Willy.png,電鋸,477,1930,477,None,拖鞋,"['鬧鐘', '打火機', '沙發', '圍巾', '支票簿', '手錶']",74,107821
Exp,None,1,1,0,1,l,l,None,bjhye9mg7,n,yogamat_Willy.png,拖鞋,517,1930,517,None,瑜珈墊,"['鬧鐘', '打火機', '沙發', '圍巾', '支票簿', '手錶']",75,107821
Exp,None,4,1,0,1,a,a,None,bjhye9mg7,n,blouse_CJJ.png,杯子,472,1930,472,None,襯衫,"['鬧鐘', '打火機', '沙發', '圍巾', '支票簿', '手錶']",76,107821
Exp,None,5,1,0,1,a,a,None,bjhye9mg7,n,chair_HKL.png,杯子,580,1930,580,None,椅子,"['鬧鐘', '打火機', '沙發', '圍巾', '支票簿', '手錶']",77,107821
Exp,None,5,1,0,1,a,a,None,bjhye9mg7,n,spring_LQN.png,長笛,434,1930,434,None,吉他,"['鬧鐘', '打火機', '沙發', '圍巾', '支票簿', '手錶']",78,107821
Exp,None,1,1,0,1,l,l,None,bjhye9mg7,n,sodacangreen_HKL.png,吉他,462,1930,462,None,汽水罐,"['鬧鐘', '打火機', '沙發', '圍巾', '支票簿', '手錶']",79,107821
Exp,None,4,1,0,1,a,a,None,bjhye9mg7,n,screw_CHN.png,襯衫,787,1930,787,None,螺絲釘,"['鬧鐘', '打火機', '沙發', '圍巾', '支票簿', '手錶']",80,107821
Exp,None,2,1,0,1,l,l,None,bjhye9mg7,n,boatorange_LTY.png,汽水罐,533,1930,533,None,蝴蝶,"['鬧鐘', '打火機', '沙發', '圍巾', '支票簿', '手錶']",81,107821
Exp,None,2,1,0,1,l,l,None,bjhye9mg7,n,batpink_CHN.png,螺絲釘,448,1930,448,None,球棒,"['鬧鐘', '打火機', '沙發', '圍巾', '支票簿', '手錶']",82,107821
Exp,None,2,0,0,0,l,l,None,bjhye9mg7,n,sunglassesred_CJJ.png,蝴蝶,874,1930,874,None,網球拍,"['鬧鐘', '打火機', '沙發', '圍巾', '支票簿', '手錶']",83,107821
Exp,None,3,1,0,1,a,a,None,bjhye9mg7,n,cookiejarbrown_HKL.png,蝴蝶,568,1930,568,None,餅乾罐,"['鬧鐘', '打火機', '沙發', '圍巾', '支票簿', '手錶']",84,107821
Exp,None,0,0,0,1,l,l,None,bjhye9mg7,y,axe_CJJ.png,斧頭,1608,1608,809,None,斧頭,"['鬧鐘', '打火機', '沙發', '圍巾', '支票簿', '手錶']",85,107821
Exp,None,0,0,0,0,l,l,None,bjhye9mg7,n,cuppink_CWL.png,杯子,3016,1608,3016,None,杯子,"['鬧鐘', '打火機', '沙發', '圍巾', '支票簿', '手錶']",86,107821
Exp,None,2,1,0,1,l,l,None,bjhye9mg7,n,boat_LTY.png,斧頭,1373,1608,1373,None,蝴蝶,"['鬧鐘', '打火機', '沙發', '圍巾', '支票簿', '手錶']",87,107821
Exp,None,2,1,0,1,l,l,None,bjhye9mg7,n,wrenchgreen_HKL.png,杯子,503,1608,503,None,板手,"['鬧鐘', '打火機', '沙發', '圍巾', '支票簿', '手錶']",88,107821
Exp,None,3,1,0,1,a,a,None,bjhye9mg7,n,fishgreen_Willy.png,杯子,456,1608,456,None,魚,"['鬧鐘', '打火機', '沙發', '圍巾', '支票簿', '手錶']",89,107821
Exp,None,5,0,0,1,a,a,None,bjhye9mg7,y,slippers_Willy.png,斧頭,1565,1565,650,None,拖鞋,"['鬧鐘', '打火機', '沙發', '圍巾', '支票簿', '手錶']",90,107821
Exp,None,1,1,0,1,l,l,None,bjhye9mg7,n,extension_CHN.png,拖鞋,648,1565,648,None,車子,"['鬧鐘', '打火機', '沙發', '圍巾', '支票簿', '手錶']",91,107821
Exp,None,0,1,0,1,l,l,None,bjhye9mg7,n,volleyballpink_LTY.png,郵票,509,1565,509,None,郵票,"['鬧鐘', '打火機', '沙發', '圍巾', '支票簿', '手錶']",92,107821
Exp,None,0,1,0,1,l,l,None,bjhye9mg7,n,duckblue_CHN.png,夾克,490,1565,490,None,夾克,"['鬧鐘', '打火機', '沙發', '圍巾', '支票簿', '手錶']",93,107821
Exp,None,0,1,0,1,l,l,None,bjhye9mg7,n,bird_CWL.png,小鳥,1269,1565,1269,None,小鳥,"['鬧鐘', '打火機', '沙發', '圍巾', '支票簿', '手錶']",94,107821
Exp,None,3,1,0,1,a,a,None,bjhye9mg7,n,notepadpink_CJJ.png,郵票,488,1565,488,None,記事本,"['鬧鐘', '打火機', '沙發', '圍巾', '支票簿', '手錶']",95,107821
Exp,None,0,0,0,0,l,l,None,bjhye9mg7,n,mp3playerbrown_Jed.png,盤子,6740,1565,463,None,盤子,"['鬧鐘', '打火機', '沙發', '圍巾', '支票簿', '手錶']",96,107821
Exp,None,4,1,0,1,a,a,None,bjhye9mg7,n,highlighterorange_Jed.png,夾克,726,1565,726,None,毛線球,"['鬧鐘', '打火機', '沙發', '圍巾', '支票簿', '手錶']",97,107821
Exp,None,0,1,0,1,l,l,None,bjhye9mg7,n,umbrella_Willy.png,雨傘,522,1565,522,None,雨傘,"['鬧鐘', '打火機', '沙發', '圍巾', '支票簿', '手錶']",98,107821
Exp,None,5,1,0,1,a,a,None,bjhye9mg7,n,gogglesred_CHN.png,小鳥,631,1565,631,None,支票,"['鬧鐘', '打火機', '沙發', '圍巾', '支票簿', '手錶']",99,107821
Exp,None,4,1,0,1,a,a,None,bjhye9mg7,n,bat_CHN.png,盤子,647,1565,647,None,球棒,"['鬧鐘', '打火機', '沙發', '圍巾', '支票簿', '手錶']",100,107821
Exp,None,1,0,0,0,l,l,None,bjhye9mg7,n,tennisracket_CWL.png,球棒,795,1565,795,None,網球拍,"['鬧鐘', '打火機', '沙發', '圍巾', '支票簿', '手錶']",101,107821
Exp,None,3,1,0,1,a,a,None,bjhye9mg7,n,extensionred_CHN.png,支票,594,1565,594,None,車子,"['鬧鐘', '打火機', '沙發', '圍巾', '支票簿', '手錶']",102,107821
Exp,None,4,1,0,1,a,a,None,bjhye9mg7,n,motorcycle_LQN.png,支票,1509,1565,1509,None,巴士,"['鬧鐘', '打火機', '沙發', '圍巾', '支票簿', '手錶']",103,107821
Exp,None,2,1,0,1,l,l,None,bjhye9mg7,n,stickynote_LTY.png,車子,386,1565,386,None,瓶蓋,"['鬧鐘', '打火機', '沙發', '圍巾', '支票簿', '手錶']",104,107821
Exp,None,5,1,0,1,a,a,None,bjhye9mg7,n,chestblue_CHN.png,球棒,435,1565,435,None,寶箱,"['鬧鐘', '打火機', '沙發', '圍巾', '支票簿', '手錶']",105,107821
Exp,None,3,1,0,1,a,a,None,bjhye9mg7,n,balloonpurple_HKL.png,巴士,747,1565,747,None,氣球,"['鬧鐘', '打火機', '沙發', '圍巾', '支票簿', '手錶']",106,107821
Exp,None,4,0,0,1,a,a,None,bjhye9mg7,y,icecreampurple_CHN.png,巴士,1346,1346,527,None,盒裝衛生紙,"['鬧鐘', '打火機', '沙發', '圍巾', '支票簿', '手錶']",107,107821
Exp,None,4,1,0,1,a,a,None,bjhye9mg7,n,shoesred_CWL.png,瓶蓋,479,1346,479,None,鞋子,"['鬧鐘', '打火機', '沙發', '圍巾', '支票簿', '手錶']",108,107821
Exp,None,2,1,0,1,l,l,None,bjhye9mg7,n,shortsyellow_CJJ.png,盒裝衛生紙,551,1346,551,None,短褲,"['鬧鐘', '打火機', '沙發', '圍巾', '支票簿', '手錶']",109,107821
Exp,None,2,1,0,1,l,l,None,bjhye9mg7,n,lotion_CKW.png,鞋子,1053,1346,1053,None,錢包,"['鬧鐘', '打火機', '沙發', '圍巾', '支票簿', '手錶']",110,107821
Exp,None,2,0,0,0,l,l,None,bjhye9mg7,n,drainplugred_LQN.png,短褲,633,1346,633,None,長笛,"['鬧鐘', '打火機', '沙發', '圍巾', '支票簿', '手錶']",111,107821
Exp,None,1,1,0,1,l,l,None,bjhye9mg7,n,knife_HKL.png,長笛,562,1346,562,None,刀子,"['鬧鐘', '打火機', '沙發', '圍巾', '支票簿', '手錶']",112,107821
Exp,None,1,1,0,1,l,l,None,bjhye9mg7,n,checkbookblue_CJJ.png,刀子,540,1346,540,None,支票簿,"['鬧鐘', '打火機', '沙發', '圍巾', '支票簿', '手錶']",113,107821
Exp,None,1,1,0,1,l,l,None,bjhye9mg7,n,bookyellow_CWL.png,支票簿,460,1346,460,None,精裝書,"['鬧鐘', '打火機', '沙發', '圍巾', '支票簿', '手錶']",114,107821
Exp,None,5,1,0,1,a,a,None,bjhye9mg7,n,bonebrown_CKW.png,錢包,881,1346,881,None,帽子,"['鬧鐘', '打火機', '沙發', '圍巾', '支票簿', '手錶']",115,107821
Exp,None,1,1,0,1,l,l,None,bjhye9mg7,n,frameyellow_CKW.png,帽子,458,1346,458,None,書籤,"['鬧鐘', '打火機', '沙發', '圍巾', '支票簿', '手錶']",116,107821
Exp,None,2,1,0,1,l,l,None,bjhye9mg7,n,phonebrown_Jed.png,帽子,1042,1346,1042,None,手鐲,"['鬧鐘', '打火機', '沙發', '圍巾', '支票簿', '手錶']",117,107821
Exp,None,4,1,0,1,a,a,None,bjhye9mg7,n,camerapink_Jed.png,精裝書,493,1346,493,None,鏟子,"['鬧鐘', '打火機', '沙發', '圍巾', '支票簿', '手錶']",118,107821
Exp,None,1,1,0,1,l,l,None,bjhye9mg7,n,magnetbrown_LQN.png,鏟子,1195,1346,1195,None,瓶子,"['鬧鐘', '打火機', '沙發', '圍巾', '支票簿', '手錶']",119,107821
Exp,None,1,1,0,1,l,l,None,bjhye9mg7,n,blowdryerpurple_Jed.png,瓶子,631,1346,631,None,腰帶,"['鬧鐘', '打火機', '沙發', '圍巾', '支票簿', '手錶']",120,107821
Exp,None,5,1,0,1,a,a,None,bjhye9mg7,n,fish_Willy.png,書籤,346,1346,346,None,魚,"['鬧鐘', '打火機', '沙發', '圍巾', '支票簿', '手錶']",121,107821
Exp,None,2,1,0,1,l,l,None,bjhye9mg7,n,alarm_LQN.png,腰帶,1299,1346,1299,None,梳子,"['鬧鐘', '打火機', '沙發', '圍巾', '支票簿', '手錶']",122,107821
Exp,None,2,1,1,1,l,l,None,bjhye9mg7,y,chest_CHN.png,魚,1614,1614,534,None,寶箱,"['鬧鐘', '打火機', '沙發', '圍巾', '支票簿', '手錶']",123,107821
Exp,None,4,1,1,1,a,a,None,bjhye9mg7,n,pipegreen_LQN.png,腰帶,1263,1614,1263,None,原子筆,"['鬧鐘', '打火機', '沙發', '圍巾', '支票簿', '手錶']",124,107821
Exp,None,5,1,1,1,a,a,None,bjhye9mg7,n,pump_CKW.png,腰帶,487,1614,487,None,褲子,"['鬧鐘', '打火機', '沙發', '圍巾', '支票簿', '手錶']",125,107821
Exp,None,4,1,1,1,a,a,None,bjhye9mg7,n,eraseryellow_CKW.png,梳子,388,1614,388,None,襪子,"['鬧鐘', '打火機', '沙發', '圍巾', '支票簿', '手錶']",126,107821
Exp,None,0,1,1,1,l,l,None,bjhye9mg7,n,table_CWL.png,桌子,583,1614,583,None,桌子,"['鬧鐘', '打火機', '沙發', '圍巾', '支票簿', '手錶']",127,107821
Exp,None,5,0,1,0,a,a,None,bjhye9mg7,n,phone_Jed.png,寶箱,3016,1614,3016,None,手鐲,"['鬧鐘', '打火機', '沙發', '圍巾', '支票簿', '手錶']",128,107821
Exp,None,3,1,1,1,a,a,None,bjhye9mg7,n,screwdriver_Willy.png,襪子,542,1614,542,None,螺絲起子,"['鬧鐘', '打火機', '沙發', '圍巾', '支票簿', '手錶']",129,107821
Exp,None,1,1,1,1,l,l,None,bjhye9mg7,n,toothpaste_CKW.png,螺絲起子,720,1614,720,None,衣架,"['鬧鐘', '打火機', '沙發', '圍巾', '支票簿', '手錶']",130,107821
Exp,None,3,1,1,1,a,a,None,bjhye9mg7,n,icetrayred_LTY.png,手鐲,887,1614,887,None,門板,"['鬧鐘', '打火機', '沙發', '圍巾', '支票簿', '手錶']",131,107821
Exp,None,3,1,1,1,a,a,None,bjhye9mg7,n,lipstick_CJJ.png,螺絲起子,630,1614,630,None,口紅,"['鬧鐘', '打火機', '沙發', '圍巾', '支票簿', '手錶']",132,107821
Exp,None,1,1,1,1,l,l,None,bjhye9mg7,n,sofapink_HKL.png,口紅,456,1614,456,None,沙發,"['鬧鐘', '打火機', '沙發', '圍巾', '支票簿', '手錶']",133,107821
Exp,None,2,1,1,1,l,l,None,bjhye9mg7,n,mousepad_Willy.png,口紅,754,1614,754,None,滑鼠墊,"['鬧鐘', '打火機', '沙發', '圍巾', '支票簿', '手錶']",134,107821
Exp,None,5,1,1,1,a,a,None,bjhye9mg7,n,tvpurple_LTY.png,衣架,863,1614,863,None,盒子,"['鬧鐘', '打火機', '沙發', '圍巾', '支票簿', '手錶']",135,107821
Exp,None,2,1,1,1,l,l,None,bjhye9mg7,n,sodacan_HKL.png,滑鼠墊,621,1614,621,None,汽水罐,"['鬧鐘', '打火機', '沙發', '圍巾', '支票簿', '手錶']",136,107821
Exp,None,4,1,1,1,a,a,None,bjhye9mg7,n,chairred_HKL.png,沙發,596,1614,596,None,椅子,"['鬧鐘', '打火機', '沙發', '圍巾', '支票簿', '手錶']",137,107821
Exp,None,2,1,1,1,l,l,None,bjhye9mg7,n,paperbag_CKW.png,汽水罐,596,1614,596,None,旗幟,"['鬧鐘', '打火機', '沙發', '圍巾', '支票簿', '手錶']",138,107821
Exp,None,0,1,1,1,l,l,None,bjhye9mg7,y,bin_CHN.png,蝴蝶,1248,1248,514,None,蝴蝶,"['鬧鐘', '打火機', '沙發', '圍巾', '支票簿', '手錶']",139,107821
Exp,None,5,1,1,1,a,a,None,bjhye9mg7,n,chargergreen_LTY.png,盒子,660,1248,660,None,毛巾,"['鬧鐘', '打火機', '沙發', '圍巾', '支票簿', '手錶']",140,107821
Exp,None,1,1,1,1,l,l,None,bjhye9mg7,n,alarmblue_LQN.png,毛巾,479,1248,479,None,梳子,"['鬧鐘', '打火機', '沙發', '圍巾', '支票簿', '手錶']",141,107821
Exp,None,5,1,1,1,a,a,None,bjhye9mg7,n,notepad_CJJ.png,椅子,453,1248,453,None,記事本,"['鬧鐘', '打火機', '沙發', '圍巾', '支票簿', '手錶']",142,107821
Exp,None,3,0,1,0,a,a,None,bjhye9mg7,n,boomboxred_LTY.png,毛巾,1396,1248,1396,None,沙漏,"['鬧鐘', '打火機', '沙發', '圍巾', '支票簿', '手錶']",143,107821
Exp,None,5,1,1,1,a,a,None,bjhye9mg7,n,toothbrushpurple_CJJ.png,蝴蝶,64173,1248,417,None,牙刷,"['鬧鐘', '打火機', '沙發', '圍巾', '支票簿', '手錶']",144,107821
Exp,None,5,1,1,1,a,a,None,bjhye9mg7,n,plasticspoonorange_Willy.png,毛巾,513,1248,513,None,塑膠湯匙,"['鬧鐘', '打火機', '沙發', '圍巾', '支票簿', '手錶']",145,107821
Exp,None,4,1,1,1,a,a,None,bjhye9mg7,n,pipe_LQN.png,記事本,532,1248,532,None,原子筆,"['鬧鐘', '打火機', '沙發', '圍巾', '支票簿', '手錶']",146,107821
Exp,None,0,0,1,0,l,l,None,bjhye9mg7,n,key_LTY.png,衣櫃,1054,1248,1054,None,衣櫃,"['鬧鐘', '打火機', '沙發', '圍巾', '支票簿', '手錶']",147,107821
Exp,None,4,1,1,1,a,a,None,bjhye9mg7,n,airplaneyellow_CHN.png,牙刷,452,1248,452,None,信用卡,"['鬧鐘', '打火機', '沙發', '圍巾', '支票簿', '手錶']",148,107821
Exp,None,3,0,1,0,a,a,None,bjhye9mg7,n,blowdryer_Jed.png,原子筆,2363,1248,2363,None,腰帶,"['鬧鐘', '打火機', '沙發', '圍巾', '支票簿', '手錶']",149,107821
Exp,None,4,1,1,1,a,a,None,bjhye9mg7,n,skirtpink_CJJ.png,原子筆,1518,1248,1518,None,裙子,"['鬧鐘', '打火機', '沙發', '圍巾', '支票簿', '手錶']",150,107821
Exp,None,2,0,1,0,l,l,None,bjhye9mg7,n,lipstickbrown_CJJ.png,腰帶,842,1248,842,None,口紅,"['鬧鐘', '打火機', '沙發', '圍巾', '支票簿', '手錶']",151,107821
Exp,None,3,1,1,1,a,a,None,bjhye9mg7,n,lego_LTY.png,腰帶,1411,1248,1411,None,花朵,"['鬧鐘', '打火機', '沙發', '圍巾', '支票簿', '手錶']",152,107821
Exp,None,4,1,1,1,a,a,None,bjhye9mg7,n,chalice_CKW.png,腰帶,537,1248,537,None,書桌,"['鬧鐘', '打火機', '沙發', '圍巾', '支票簿', '手錶']",153,107821
Exp,None,3,1,1,1,a,a,None,bjhye9mg7,n,plushy_LTY.png,口紅,569,1248,569,None,指甲銼,"['鬧鐘', '打火機', '沙發', '圍巾', '支票簿', '手錶']",154,107821
Exp,None,2,1,1,1,l,l,None,bjhye9mg7,y,eraser_CKW.png,書桌,1284,1284,485,None,襪子,"['鬧鐘', '打火機', '沙發', '圍巾', '支票簿', '手錶']",155,107821
Exp,None,1,1,1,1,l,l,None,bjhye9mg7,n,knifepurple_HKL.png,襪子,540,1284,540,None,刀子,"['鬧鐘', '打火機', '沙發', '圍巾', '支票簿', '手錶']",156,107821
Exp,None,2,1,1,1,l,l,None,bjhye9mg7,n,icetray_LTY.png,襪子,569,1284,569,None,門板,"['鬧鐘', '打火機', '沙發', '圍巾', '支票簿', '手錶']",157,107821
Exp,None,3,1,1,1,a,a,None,bjhye9mg7,n,birdorange_CWL.png,襪子,451,1284,451,None,小鳥,"['鬧鐘', '打火機', '沙發', '圍巾', '支票簿', '手錶']",158,107821
Exp,None,5,1,1,1,a,a,None,bjhye9mg7,n,keyblue_LTY.png,指甲銼,428,1284,428,None,衣櫃,"['鬧鐘', '打火機', '沙發', '圍巾', '支票簿', '手錶']",159,107821
Exp,None,5,1,1,1,a,a,None,bjhye9mg7,n,chalk_LQN.png,襪子,595,1284,595,None,卡車,"['鬧鐘', '打火機', '沙發', '圍巾', '支票簿', '手錶']",160,107821
Exp,None,2,1,1,1,l,l,None,bjhye9mg7,n,leggingspurple_Willy.png,衣櫃,513,1284,513,None,緊身褲,"['鬧鐘', '打火機', '沙發', '圍巾', '支票簿', '手錶']",161,107821
Exp,None,2,1,1,1,l,l,None,bjhye9mg7,n,hammer_CJJ.png,卡車,592,1284,592,None,錘子,"['鬧鐘', '打火機', '沙發', '圍巾', '支票簿', '手錶']",162,107821
Exp,None,1,1,1,1,l,l,None,bjhye9mg7,n,coatbutton_Willy.png,錘子,606,1284,606,None,外套鈕扣,"['鬧鐘', '打火機', '沙發', '圍巾', '支票簿', '手錶']",163,107821
Exp,None,1,1,1,1,l,l,None,bjhye9mg7,n,helmet_HKL.png,外套鈕扣,485,1284,485,None,安全帽,"['鬧鐘', '打火機', '沙發', '圍巾', '支票簿', '手錶']",164,107821
Exp,None,4,1,1,1,a,a,None,bjhye9mg7,n,staplergreen_LQN.png,緊身褲,2000,1284,2000,None,被子,"['鬧鐘', '打火機', '沙發', '圍巾', '支票簿', '手錶']",165,107821
Exp,None,5,1,1,1,a,a,None,bjhye9mg7,n,tshirtbrown_HKL.png,緊身褲,651,1284,651,None,T恤,"['鬧鐘', '打火機', '沙發', '圍巾', '支票簿', '手錶']",166,107821
Exp,None,0,1,1,1,l,l,None,bjhye9mg7,n,toothbrush_CJJ.png,牙刷,572,1284,572,None,牙刷,"['鬧鐘', '打火機', '沙發', '圍巾', '支票簿', '手錶']",167,107821
Exp,None,2,1,1,1,l,l,None,bjhye9mg7,n,bicyclered_CWL.png,T恤,762,1284,762,None,腳踏車,"['鬧鐘', '打火機', '沙發', '圍巾', '支票簿', '手錶']",168,107821
Exp,None,2,1,1,1,l,l,None,bjhye9mg7,n,buckleyellow_Jed.png,牙刷,935,1284,935,None,打火機,"['鬧鐘', '打火機', '沙發', '圍巾', '支票簿', '手錶']",169,107821
Exp,None,4,1,1,1,a,a,None,bjhye9mg7,n,balloon_HKL.png,T恤,502,1284,502,None,氣球,"['鬧鐘', '打火機', '沙發', '圍巾', '支票簿', '手錶']",170,107821
Exp,None,3,0,1,0,a,a,None,bjhye9mg7,y,chalkpurple_LQN.png,腳踏車,1358,1284,1358,None,卡車,"['鬧鐘', '打火機', '沙發', '圍巾', '支票簿', '手錶']",171,107821
Exp,None,1,1,1,1,l,l,None,bjhye9mg7,n,tennisracketgreen_CWL.png,卡車,568,1284,568,None,網球拍,"['鬧鐘', '打火機', '沙發', '圍巾', '支票簿', '手錶']",172,107821
Exp,None,5,1,1,1,a,a,None,bjhye9mg7,n,usbbrown_CKW.png,腳踏車,639,1284,639,None,領帶,"['鬧鐘', '打火機', '沙發', '圍巾', '支票簿', '手錶']",173,107821
Exp,None,4,1,1,1,a,a,None,bjhye9mg7,n,iceskate_Jed.png,氣球,1165,1284,1165,None,鬧鐘,"['鬧鐘', '打火機', '沙發', '圍巾', '支票簿', '手錶']",174,107821
Exp,None,5,1,1,1,a,a,None,bjhye9mg7,n,hammerpink_CJJ.png,氣球,461,1284,461,None,錘子,"['鬧鐘', '打火機', '沙發', '圍巾', '支票簿', '手錶']",175,107821
Exp,None,3,1,1,1,a,a,None,bjhye9mg7,n,umbrellared_Willy.png,領帶,548,1284,548,None,雨傘,"['鬧鐘', '打火機', '沙發', '圍巾', '支票簿', '手錶']",176,107821
Exp,None,3,1,1,1,a,a,None,bjhye9mg7,n,coaster_Jed.png,鬧鐘,725,1284,725,None,鑷子,"['鬧鐘', '打火機', '沙發', '圍巾', '支票簿', '手錶']",177,107821
Exp,None,1,1,1,1,l,l,None,bjhye9mg7,n,toothpastepink_CKW.png,鑷子,994,1284,994,None,衣架,"['鬧鐘', '打火機', '沙發', '圍巾', '支票簿', '手錶']",178,107821
Exp,None,5,1,1,1,a,a,None,bjhye9mg7,n,shorts_CJJ.png,鬧鐘,378,1284,378,None,短褲,"['鬧鐘', '打火機', '沙發', '圍巾', '支票簿', '手錶']",179,107821
Exp,None,4,1,1,1,a,a,None,bjhye9mg7,n,cookiejar_HKL.png,雨傘,488,1284,488,None,餅乾罐,"['鬧鐘', '打火機', '沙發', '圍巾', '支票簿', '手錶']",180,107821
Exp,None,3,1,1,1,a,a,None,bjhye9mg7,n,tableorange_CWL.png,衣架,517,1284,517,None,桌子,"['鬧鐘', '打火機', '沙發', '圍巾', '支票簿', '手錶']",181,107821
Exp,None,3,1,1,1,a,a,None,bjhye9mg7,n,stick_LQN.png,短褲,412,1284,412,None,小提琴,"['鬧鐘', '打火機', '沙發', '圍巾', '支票簿', '手錶']",182,107821
Exp,None,0,1,1,1,l,l,None,bjhye9mg7,n,hockeystickgreen_Jed.png,花瓶,596,1284,596,None,花瓶,"['鬧鐘', '打火機', '沙發', '圍巾', '支票簿', '手錶']",183,107821
Exp,None,3,1,1,1,a,a,None,bjhye9mg7,n,shoes_CWL.png,桌子,537,1284,537,None,鞋子,"['鬧鐘', '打火機', '沙發', '圍巾', '支票簿', '手錶']",184,107821
Exp,None,4,1,1,1,a,a,None,bjhye9mg7,n,tshirt_HKL.png,桌子,507,1284,507,None,T恤,"['鬧鐘', '打火機', '沙發', '圍巾', '支票簿', '手錶']",185,107821
Exp,None,5,1,1,1,a,a,None,bjhye9mg7,n,paperbagred_CKW.png,桌子,648,1284,648,None,旗幟,"['鬧鐘', '打火機', '沙發', '圍巾', '支票簿', '手錶']",186,107821
Exp,None,2,1,1,1,l,l,None,bjhye9mg7,n,deodorant_Jed.png,T恤,577,1284,577,None,手錶,"['鬧鐘', '打火機', '沙發', '圍巾', '支票簿', '手錶']",187,107821
Exp,None,1,1,1,1,l,l,None,bjhye9mg7,n,checkbook_CJJ.png,手錶,496,1284,496,None,支票簿,"['鬧鐘', '打火機', '沙發', '圍巾', '支票簿', '手錶']",188,107821
Exp,None,4,1,1,1,a,a,None,bjhye9mg7,n,scarforange_Willy.png,T恤,441,1284,441,None,圍巾,"['鬧鐘', '打火機', '沙發', '圍巾', '支票簿', '手錶']",189,107821
Exp,None,3,1,1,1,a,a,None,bjhye9mg7,n,sofa_HKL.png,手錶,1117,1284,1117,None,沙發,"['鬧鐘', '打火機', '沙發', '圍巾', '支票簿', '手錶']",190,107821
Exp,None,3,1,1,1,a,a,None,bjhye9mg7,n,buckle_Jed.png,支票簿,900,1284,900,None,打火機,"['鬧鐘', '打火機', '沙發', '圍巾', '支票簿', '手錶']",191,107821
Exp,None,0,1,1,1,l,l,None,bjhye9mg7,n,iceskatepink_Jed.png,鬧鐘,811,1284,811,None,鬧鐘,"['鬧鐘', '打火機', '沙發', '圍巾', '支票簿', '手錶']",192,107821
Post,gender,0,0,1,1,l,l,None,bjhye9mg7,n,iceskatepink_Jed.png,鬧鐘,2894,1284,811,None,鬧鐘,"['鬧鐘', '打火機', '沙發', '圍巾', '支票簿', '手錶']",192,107821
Post,birth_12,0,0,1,1,l,l,None,bjhye9mg7,n,iceskatepink_Jed.png,鬧鐘,4732,1284,811,None,鬧鐘,"['鬧鐘', '打火機', '沙發', '圍巾', '支票簿', '手錶']",192,107821
Post,birth_3,0,0,1,1,l,l,None,bjhye9mg7,n,iceskatepink_Jed.png,鬧鐘,8567,1284,811,None,鬧鐘,"['鬧鐘', '打火機', '沙發', '圍巾', '支票簿', '手錶']",192,107821
Post,birth_4,0,0,1,1,l,l,None,bjhye9mg7,n,iceskatepink_Jed.png,鬧鐘,4046,1284,811,None,鬧鐘,"['鬧鐘', '打火機', '沙發', '圍巾', '支票簿', '手錶']",192,107821
