Task,Topic,anchor,browser_codename,browser_name,browser_version,correct,correct_Check_response,correct_decision_response,correct_response,correct_response_target,correct_target,date_startdate,date_startdateUTC,date_starttime,experiment_debug,experiment_parameters,experiment_pilot,experiment_taskname,experiment_taskversion,identifier,jatosStudyResultId,jatosVersion,memory,picture,recterm,response_time,response_time_Check_response,response_time_decision_response,response_time_target,screen_availableHeight,screen_availableWidth,screen_colorDepth,screen_height,screen_pixelDepth,screen_screenX,screen_screenY,screen_width,system_os,term,term_list,trial_seq,Start Time,Last Seen,Duration,Batch,Worker ID,Worker Type,State,Message
consent,None,None,Mozilla,Netscape,"5.0 (Windows NT 10.0; Win64; x64) AppleWebKit/537.36 (KHTML, like Gecko) Chrome/100.0.4896.127 Safari/537.36",NA,None,None,None,None,None,29-03-22,29-03-22,10:56:01,0,0,0,0,0,1sy8ixw7o,108129,3.7.3,None,None,None,621,None,None,None,720,1280,24,720,24,4,2,1280,Win32,None,None,None,2022/04/29 02:55:14,2022/04/29 02:57:23,00:09:43,Default,108286,General Multiple,FINISHED,none
Prac,None,None,Mozilla,Netscape,"5.0 (Windows NT 10.0; Win64; x64) AppleWebKit/537.36 (KHTML, like Gecko) Chrome/100.0.4896.127 Safari/537.36",1,None,1,a,a,None,29-03-22,29-03-22,10:56:01,0,0,0,0,0,1sy8ixw7o,108129,3.7.3,n,banana green.png,[],1250,None,1250,None,720,1280,24,720,24,4,2,1280,Win32,李子,"['橘子', '檸檬', '時鐘', '袋鼠', '香蕉', '猴子']",1,2022/04/29 02:55:14,2022/04/29 02:57:23,00:09:43,Default,108286,General Multiple,FINISHED,none
Prac,None,None,Mozilla,Netscape,"5.0 (Windows NT 10.0; Win64; x64) AppleWebKit/537.36 (KHTML, like Gecko) Chrome/100.0.4896.127 Safari/537.36",0,None,0,a,a,None,29-03-22,29-03-22,10:56:01,0,0,0,0,0,1sy8ixw7o,108129,3.7.3,n,broom_2.png,[],477,None,477,None,720,1280,24,720,24,4,2,1280,Win32,拖把,"['橘子', '檸檬', '時鐘', '袋鼠', '香蕉', '猴子']",2,2022/04/29 02:55:14,2022/04/29 02:57:23,00:09:43,Default,108286,General Multiple,FINISHED,none
Prac,None,None,Mozilla,Netscape,"5.0 (Windows NT 10.0; Win64; x64) AppleWebKit/537.36 (KHTML, like Gecko) Chrome/100.0.4896.127 Safari/537.36",1,None,1,a,a,None,29-03-22,29-03-22,10:56:01,0,0,0,0,0,1sy8ixw7o,108129,3.7.3,n,monkeyorange_1_240.png,[],882,None,882,None,720,1280,24,720,24,4,2,1280,Win32,兔子,"['橘子', '檸檬', '時鐘', '袋鼠', '香蕉', '猴子']",3,2022/04/29 02:55:14,2022/04/29 02:57:23,00:09:43,Default,108286,General Multiple,FINISHED,none
Prac,None,None,Mozilla,Netscape,"5.0 (Windows NT 10.0; Win64; x64) AppleWebKit/537.36 (KHTML, like Gecko) Chrome/100.0.4896.127 Safari/537.36",1,None,1,l,l,None,29-03-22,29-03-22,10:56:01,0,0,0,0,0,1sy8ixw7o,108129,3.7.3,n,broom_2.png,[],1297,None,1297,None,720,1280,24,720,24,4,2,1280,Win32,掃帚,"['橘子', '檸檬', '時鐘', '袋鼠', '香蕉', '猴子']",4,2022/04/29 02:55:14,2022/04/29 02:57:23,00:09:43,Default,108286,General Multiple,FINISHED,none
Prac,None,None,Mozilla,Netscape,"5.0 (Windows NT 10.0; Win64; x64) AppleWebKit/537.36 (KHTML, like Gecko) Chrome/100.0.4896.127 Safari/537.36",1,None,1,a,a,None,29-03-22,29-03-22,10:56:01,0,0,0,0,0,1sy8ixw7o,108129,3.7.3,n,kangaroo_1.png,[],873,None,873,None,720,1280,24,720,24,4,2,1280,Win32,文件夾,"['橘子', '檸檬', '時鐘', '袋鼠', '香蕉', '猴子']",5,2022/04/29 02:55:14,2022/04/29 02:57:23,00:09:43,Default,108286,General Multiple,FINISHED,none
Prac,None,3,Mozilla,Netscape,"5.0 (Windows NT 10.0; Win64; x64) AppleWebKit/537.36 (KHTML, like Gecko) Chrome/100.0.4896.127 Safari/537.36",1,None,1,a,a,None,29-03-22,29-03-22,10:56:01,0,0,0,0,0,1sy8ixw7o,108129,3.7.3,n,clock_300.png,兔子,870,None,870,None,720,1280,24,720,24,4,2,1280,Win32,金字塔,"['橘子', '檸檬', '時鐘', '袋鼠', '香蕉', '猴子']",6,2022/04/29 02:55:14,2022/04/29 02:57:23,00:09:43,Default,108286,General Multiple,FINISHED,none
Prac,None,0,Mozilla,Netscape,"5.0 (Windows NT 10.0; Win64; x64) AppleWebKit/537.36 (KHTML, like Gecko) Chrome/100.0.4896.127 Safari/537.36",1,None,1,l,l,None,29-03-22,29-03-22,10:56:01,0,0,0,0,0,1sy8ixw7o,108129,3.7.3,n,monkeyorange_1_240.png,猴子,824,None,824,None,720,1280,24,720,24,4,2,1280,Win32,猴子,"['橘子', '檸檬', '時鐘', '袋鼠', '香蕉', '猴子']",7,2022/04/29 02:55:14,2022/04/29 02:57:23,00:09:43,Default,108286,General Multiple,FINISHED,none
Prac,None,4,Mozilla,Netscape,"5.0 (Windows NT 10.0; Win64; x64) AppleWebKit/537.36 (KHTML, like Gecko) Chrome/100.0.4896.127 Safari/537.36",0,0,1,a,a,None,29-03-22,29-03-22,10:56:01,0,0,0,0,0,1sy8ixw7o,108129,3.7.3,y,banana green.png,掃帚,1415,1415,427,None,720,1280,24,720,24,4,2,1280,Win32,香蕉,"['橘子', '檸檬', '時鐘', '袋鼠', '香蕉', '猴子']",8,2022/04/29 02:55:14,2022/04/29 02:57:23,00:09:43,Default,108286,General Multiple,FINISHED,none
Prac,None,1,Mozilla,Netscape,"5.0 (Windows NT 10.0; Win64; x64) AppleWebKit/537.36 (KHTML, like Gecko) Chrome/100.0.4896.127 Safari/537.36",1,0,1,l,l,None,29-03-22,29-03-22,10:56:01,0,0,0,0,0,1sy8ixw7o,108129,3.7.3,n,kangaroo_1.png,香蕉,461,1415,461,None,720,1280,24,720,24,4,2,1280,Win32,袋鼠,"['橘子', '檸檬', '時鐘', '袋鼠', '香蕉', '猴子']",9,2022/04/29 02:55:14,2022/04/29 02:57:23,00:09:43,Default,108286,General Multiple,FINISHED,none
Prac,None,4,Mozilla,Netscape,"5.0 (Windows NT 10.0; Win64; x64) AppleWebKit/537.36 (KHTML, like Gecko) Chrome/100.0.4896.127 Safari/537.36",0,0,0,a,a,None,29-03-22,29-03-22,10:56:01,0,0,0,0,0,1sy8ixw7o,108129,3.7.3,n,clock_300.png,金字塔,605,1415,605,None,720,1280,24,720,24,4,2,1280,Win32,時鐘,"['橘子', '檸檬', '時鐘', '袋鼠', '香蕉', '猴子']",10,2022/04/29 02:55:14,2022/04/29 02:57:23,00:09:43,Default,108286,General Multiple,FINISHED,none
Prac,None,4,Mozilla,Netscape,"5.0 (Windows NT 10.0; Win64; x64) AppleWebKit/537.36 (KHTML, like Gecko) Chrome/100.0.4896.127 Safari/537.36",1,0,1,a,a,None,29-03-22,29-03-22,10:56:01,0,0,0,0,0,1sy8ixw7o,108129,3.7.3,n,orangeorange_1.png,猴子,669,1415,669,None,720,1280,24,720,24,4,2,1280,Win32,檸檬,"['橘子', '檸檬', '時鐘', '袋鼠', '香蕉', '猴子']",11,2022/04/29 02:55:14,2022/04/29 02:57:23,00:09:43,Default,108286,General Multiple,FINISHED,none
Prac,None,3,Mozilla,Netscape,"5.0 (Windows NT 10.0; Win64; x64) AppleWebKit/537.36 (KHTML, like Gecko) Chrome/100.0.4896.127 Safari/537.36",1,0,1,a,a,None,29-03-22,29-03-22,10:56:01,0,0,0,0,0,1sy8ixw7o,108129,3.7.3,n,orangeorange_1.png,袋鼠,441,1415,441,None,720,1280,24,720,24,4,2,1280,Win32,橘子,"['橘子', '檸檬', '時鐘', '袋鼠', '香蕉', '猴子']",12,2022/04/29 02:55:14,2022/04/29 02:57:23,00:09:43,Default,108286,General Multiple,FINISHED,none
Exp,None,3,Mozilla,Netscape,"5.0 (Windows NT 10.0; Win64; x64) AppleWebKit/537.36 (KHTML, like Gecko) Chrome/100.0.4896.127 Safari/537.36",1,0,1,a,a,None,29-03-22,29-03-22,10:56:01,0,0,0,0,0,1sy8ixw7o,108129,3.7.3,n,staplergreen_LQN.png,[],563,1415,563,None,720,1280,24,720,24,4,2,1280,Win32,被子,"['盒裝衛生紙', '羽毛撣子', '羽毛撣子', '蝴蝶', '椅子', '杯子']",1,2022/04/29 02:55:14,2022/04/29 02:57:23,00:09:43,Default,108286,General Multiple,FINISHED,none
Exp,None,3,Mozilla,Netscape,"5.0 (Windows NT 10.0; Win64; x64) AppleWebKit/537.36 (KHTML, like Gecko) Chrome/100.0.4896.127 Safari/537.36",1,0,1,l,l,None,29-03-22,29-03-22,10:56:01,0,0,0,0,0,1sy8ixw7o,108129,3.7.3,n,tableorange_CWL.png,[],618,1415,618,None,720,1280,24,720,24,4,2,1280,Win32,桌子,"['盒裝衛生紙', '羽毛撣子', '羽毛撣子', '蝴蝶', '椅子', '杯子']",2,2022/04/29 02:55:14,2022/04/29 02:57:23,00:09:43,Default,108286,General Multiple,FINISHED,none
Exp,None,3,Mozilla,Netscape,"5.0 (Windows NT 10.0; Win64; x64) AppleWebKit/537.36 (KHTML, like Gecko) Chrome/100.0.4896.127 Safari/537.36",1,0,1,a,a,None,29-03-22,29-03-22,10:56:01,0,0,0,0,0,1sy8ixw7o,108129,3.7.3,n,frame_CKW.png,[],617,1415,617,None,720,1280,24,720,24,4,2,1280,Win32,書籤,"['盒裝衛生紙', '羽毛撣子', '羽毛撣子', '蝴蝶', '椅子', '杯子']",3,2022/04/29 02:55:14,2022/04/29 02:57:23,00:09:43,Default,108286,General Multiple,FINISHED,none
Exp,None,3,Mozilla,Netscape,"5.0 (Windows NT 10.0; Win64; x64) AppleWebKit/537.36 (KHTML, like Gecko) Chrome/100.0.4896.127 Safari/537.36",1,0,1,a,a,None,29-03-22,29-03-22,10:56:01,0,0,0,0,0,1sy8ixw7o,108129,3.7.3,n,goggles_CHN.png,[],487,1415,487,None,720,1280,24,720,24,4,2,1280,Win32,支票,"['盒裝衛生紙', '羽毛撣子', '羽毛撣子', '蝴蝶', '椅子', '杯子']",4,2022/04/29 02:55:14,2022/04/29 02:57:23,00:09:43,Default,108286,General Multiple,FINISHED,none
Exp,None,3,Mozilla,Netscape,"5.0 (Windows NT 10.0; Win64; x64) AppleWebKit/537.36 (KHTML, like Gecko) Chrome/100.0.4896.127 Safari/537.36",1,0,1,a,a,None,29-03-22,29-03-22,10:56:01,0,0,0,0,0,1sy8ixw7o,108129,3.7.3,n,highlighter_Jed.png,[],638,1415,638,None,720,1280,24,720,24,4,2,1280,Win32,毛線球,"['盒裝衛生紙', '羽毛撣子', '羽毛撣子', '蝴蝶', '椅子', '杯子']",5,2022/04/29 02:55:14,2022/04/29 02:57:23,00:09:43,Default,108286,General Multiple,FINISHED,none
Exp,None,1,Mozilla,Netscape,"5.0 (Windows NT 10.0; Win64; x64) AppleWebKit/537.36 (KHTML, like Gecko) Chrome/100.0.4896.127 Safari/537.36",1,0,1,l,l,None,29-03-22,29-03-22,10:56:01,0,0,0,0,0,1sy8ixw7o,108129,3.7.3,n,birdorange_CWL.png,毛線球,460,1415,460,None,720,1280,24,720,24,4,2,1280,Win32,小鳥,"['盒裝衛生紙', '羽毛撣子', '羽毛撣子', '蝴蝶', '椅子', '杯子']",6,2022/04/29 02:55:14,2022/04/29 02:57:23,00:09:43,Default,108286,General Multiple,FINISHED,none
Exp,None,2,Mozilla,Netscape,"5.0 (Windows NT 10.0; Win64; x64) AppleWebKit/537.36 (KHTML, like Gecko) Chrome/100.0.4896.127 Safari/537.36",1,0,1,l,l,None,29-03-22,29-03-22,10:56:01,0,0,0,0,0,1sy8ixw7o,108129,3.7.3,n,toothbrushpurple_CJJ.png,毛線球,663,1415,663,None,720,1280,24,720,24,4,2,1280,Win32,牙刷,"['盒裝衛生紙', '羽毛撣子', '羽毛撣子', '蝴蝶', '椅子', '杯子']",7,2022/04/29 02:55:14,2022/04/29 02:57:23,00:09:43,Default,108286,General Multiple,FINISHED,none
Exp,None,0,Mozilla,Netscape,"5.0 (Windows NT 10.0; Win64; x64) AppleWebKit/537.36 (KHTML, like Gecko) Chrome/100.0.4896.127 Safari/537.36",1,1,1,l,l,None,29-03-22,29-03-22,10:56:01,0,0,0,0,0,1sy8ixw7o,108129,3.7.3,y,drainplugred_LQN.png,長笛,918,918,619,None,720,1280,24,720,24,4,2,1280,Win32,長笛,"['盒裝衛生紙', '羽毛撣子', '羽毛撣子', '蝴蝶', '椅子', '杯子']",8,2022/04/29 02:55:14,2022/04/29 02:57:23,00:09:43,Default,108286,General Multiple,FINISHED,none
Exp,None,1,Mozilla,Netscape,"5.0 (Windows NT 10.0; Win64; x64) AppleWebKit/537.36 (KHTML, like Gecko) Chrome/100.0.4896.127 Safari/537.36",1,1,1,l,l,None,29-03-22,29-03-22,10:56:01,0,0,0,0,0,1sy8ixw7o,108129,3.7.3,n,tshirtbrown_HKL.png,長笛,407,918,407,None,720,1280,24,720,24,4,2,1280,Win32,T恤,"['盒裝衛生紙', '羽毛撣子', '羽毛撣子', '蝴蝶', '椅子', '杯子']",9,2022/04/29 02:55:14,2022/04/29 02:57:23,00:09:43,Default,108286,General Multiple,FINISHED,none
Exp,None,4,Mozilla,Netscape,"5.0 (Windows NT 10.0; Win64; x64) AppleWebKit/537.36 (KHTML, like Gecko) Chrome/100.0.4896.127 Safari/537.36",1,1,1,a,a,None,29-03-22,29-03-22,10:56:01,0,0,0,0,0,1sy8ixw7o,108129,3.7.3,n,screwyellow_CHN.png,小鳥,576,918,576,None,720,1280,24,720,24,4,2,1280,Win32,螺絲釘,"['盒裝衛生紙', '羽毛撣子', '羽毛撣子', '蝴蝶', '椅子', '杯子']",10,2022/04/29 02:55:14,2022/04/29 02:57:23,00:09:43,Default,108286,General Multiple,FINISHED,none
Exp,None,2,Mozilla,Netscape,"5.0 (Windows NT 10.0; Win64; x64) AppleWebKit/537.36 (KHTML, like Gecko) Chrome/100.0.4896.127 Safari/537.36",1,1,1,l,l,None,29-03-22,29-03-22,10:56:01,0,0,0,0,0,1sy8ixw7o,108129,3.7.3,n,shoes_CWL.png,T恤,385,918,385,None,720,1280,24,720,24,4,2,1280,Win32,鞋子,"['盒裝衛生紙', '羽毛撣子', '羽毛撣子', '蝴蝶', '椅子', '杯子']",11,2022/04/29 02:55:14,2022/04/29 02:57:23,00:09:43,Default,108286,General Multiple,FINISHED,none
Exp,None,0,Mozilla,Netscape,"5.0 (Windows NT 10.0; Win64; x64) AppleWebKit/537.36 (KHTML, like Gecko) Chrome/100.0.4896.127 Safari/537.36",1,1,1,l,l,None,29-03-22,29-03-22,10:56:01,0,0,0,0,0,1sy8ixw7o,108129,3.7.3,n,lipstick_CJJ.png,口紅,378,918,378,None,720,1280,24,720,24,4,2,1280,Win32,口紅,"['盒裝衛生紙', '羽毛撣子', '羽毛撣子', '蝴蝶', '椅子', '杯子']",12,2022/04/29 02:55:14,2022/04/29 02:57:23,00:09:43,Default,108286,General Multiple,FINISHED,none
Exp,None,3,Mozilla,Netscape,"5.0 (Windows NT 10.0; Win64; x64) AppleWebKit/537.36 (KHTML, like Gecko) Chrome/100.0.4896.127 Safari/537.36",1,1,1,a,a,None,29-03-22,29-03-22,10:56:01,0,0,0,0,0,1sy8ixw7o,108129,3.7.3,n,bird_CWL.png,螺絲釘,372,918,372,None,720,1280,24,720,24,4,2,1280,Win32,小鳥,"['盒裝衛生紙', '羽毛撣子', '羽毛撣子', '蝴蝶', '椅子', '杯子']",13,2022/04/29 02:55:14,2022/04/29 02:57:23,00:09:43,Default,108286,General Multiple,FINISHED,none
Exp,None,3,Mozilla,Netscape,"5.0 (Windows NT 10.0; Win64; x64) AppleWebKit/537.36 (KHTML, like Gecko) Chrome/100.0.4896.127 Safari/537.36",1,1,1,a,a,None,29-03-22,29-03-22,10:56:01,0,0,0,0,0,1sy8ixw7o,108129,3.7.3,n,shorts_CJJ.png,鞋子,306,918,306,None,720,1280,24,720,24,4,2,1280,Win32,短褲,"['盒裝衛生紙', '羽毛撣子', '羽毛撣子', '蝴蝶', '椅子', '杯子']",14,2022/04/29 02:55:14,2022/04/29 02:57:23,00:09:43,Default,108286,General Multiple,FINISHED,none
Exp,None,3,Mozilla,Netscape,"5.0 (Windows NT 10.0; Win64; x64) AppleWebKit/537.36 (KHTML, like Gecko) Chrome/100.0.4896.127 Safari/537.36",1,1,1,a,a,None,29-03-22,29-03-22,10:56:01,0,0,0,0,0,1sy8ixw7o,108129,3.7.3,n,scarf_Willy.png,口紅,359,918,359,None,720,1280,24,720,24,4,2,1280,Win32,圍巾,"['盒裝衛生紙', '羽毛撣子', '羽毛撣子', '蝴蝶', '椅子', '杯子']",15,2022/04/29 02:55:14,2022/04/29 02:57:23,00:09:43,Default,108286,General Multiple,FINISHED,none
Exp,None,0,Mozilla,Netscape,"5.0 (Windows NT 10.0; Win64; x64) AppleWebKit/537.36 (KHTML, like Gecko) Chrome/100.0.4896.127 Safari/537.36",1,1,1,l,l,None,29-03-22,29-03-22,10:56:01,0,0,0,0,0,1sy8ixw7o,108129,3.7.3,n,fish_Willy.png,魚,307,918,307,None,720,1280,24,720,24,4,2,1280,Win32,魚,"['盒裝衛生紙', '羽毛撣子', '羽毛撣子', '蝴蝶', '椅子', '杯子']",16,2022/04/29 02:55:14,2022/04/29 02:57:23,00:09:43,Default,108286,General Multiple,FINISHED,none
Exp,None,2,Mozilla,Netscape,"5.0 (Windows NT 10.0; Win64; x64) AppleWebKit/537.36 (KHTML, like Gecko) Chrome/100.0.4896.127 Safari/537.36",1,1,1,l,l,None,29-03-22,29-03-22,10:56:01,0,0,0,0,0,1sy8ixw7o,108129,3.7.3,n,bowl_CWL.png,圍巾,382,918,382,None,720,1280,24,720,24,4,2,1280,Win32,碗,"['盒裝衛生紙', '羽毛撣子', '羽毛撣子', '蝴蝶', '椅子', '杯子']",17,2022/04/29 02:55:14,2022/04/29 02:57:23,00:09:43,Default,108286,General Multiple,FINISHED,none
Exp,None,3,Mozilla,Netscape,"5.0 (Windows NT 10.0; Win64; x64) AppleWebKit/537.36 (KHTML, like Gecko) Chrome/100.0.4896.127 Safari/537.36",1,1,1,a,a,None,29-03-22,29-03-22,10:56:01,0,0,0,0,0,1sy8ixw7o,108129,3.7.3,n,chargergreen_LTY.png,圍巾,514,918,514,None,720,1280,24,720,24,4,2,1280,Win32,毛巾,"['盒裝衛生紙', '羽毛撣子', '羽毛撣子', '蝴蝶', '椅子', '杯子']",18,2022/04/29 02:55:14,2022/04/29 02:57:23,00:09:43,Default,108286,General Multiple,FINISHED,none
Exp,None,3,Mozilla,Netscape,"5.0 (Windows NT 10.0; Win64; x64) AppleWebKit/537.36 (KHTML, like Gecko) Chrome/100.0.4896.127 Safari/537.36",1,1,1,a,a,None,29-03-22,29-03-22,10:56:01,0,0,0,0,0,1sy8ixw7o,108129,3.7.3,n,fork_HKL.png,魚,438,918,438,None,720,1280,24,720,24,4,2,1280,Win32,叉子,"['盒裝衛生紙', '羽毛撣子', '羽毛撣子', '蝴蝶', '椅子', '杯子']",19,2022/04/29 02:55:14,2022/04/29 02:57:23,00:09:43,Default,108286,General Multiple,FINISHED,none
Exp,None,1,Mozilla,Netscape,"5.0 (Windows NT 10.0; Win64; x64) AppleWebKit/537.36 (KHTML, like Gecko) Chrome/100.0.4896.127 Safari/537.36",1,1,1,l,l,None,29-03-22,29-03-22,10:56:01,0,0,0,0,0,1sy8ixw7o,108129,3.7.3,n,extensionred_CHN.png,叉子,548,918,548,None,720,1280,24,720,24,4,2,1280,Win32,車子,"['盒裝衛生紙', '羽毛撣子', '羽毛撣子', '蝴蝶', '椅子', '杯子']",20,2022/04/29 02:55:14,2022/04/29 02:57:23,00:09:43,Default,108286,General Multiple,FINISHED,none
Exp,None,3,Mozilla,Netscape,"5.0 (Windows NT 10.0; Win64; x64) AppleWebKit/537.36 (KHTML, like Gecko) Chrome/100.0.4896.127 Safari/537.36",1,1,1,a,a,None,29-03-22,29-03-22,10:56:01,0,0,0,0,0,1sy8ixw7o,108129,3.7.3,n,glove_CWL.png,毛巾,433,918,433,None,720,1280,24,720,24,4,2,1280,Win32,手套,"['盒裝衛生紙', '羽毛撣子', '羽毛撣子', '蝴蝶', '椅子', '杯子']",21,2022/04/29 02:55:14,2022/04/29 02:57:23,00:09:43,Default,108286,General Multiple,FINISHED,none
Exp,None,1,Mozilla,Netscape,"5.0 (Windows NT 10.0; Win64; x64) AppleWebKit/537.36 (KHTML, like Gecko) Chrome/100.0.4896.127 Safari/537.36",1,1,1,l,l,None,29-03-22,29-03-22,10:56:01,0,0,0,0,0,1sy8ixw7o,108129,3.7.3,n,deodorant_Jed.png,手套,677,918,677,None,720,1280,24,720,24,4,2,1280,Win32,手錶,"['盒裝衛生紙', '羽毛撣子', '羽毛撣子', '蝴蝶', '椅子', '杯子']",22,2022/04/29 02:55:14,2022/04/29 02:57:23,00:09:43,Default,108286,General Multiple,FINISHED,none
Exp,None,4,Mozilla,Netscape,"5.0 (Windows NT 10.0; Win64; x64) AppleWebKit/537.36 (KHTML, like Gecko) Chrome/100.0.4896.127 Safari/537.36",1,1,1,a,a,None,29-03-22,29-03-22,10:56:01,0,0,0,0,0,1sy8ixw7o,108129,3.7.3,n,saw_Willy.png,叉子,610,918,610,None,720,1280,24,720,24,4,2,1280,Win32,電鋸,"['盒裝衛生紙', '羽毛撣子', '羽毛撣子', '蝴蝶', '椅子', '杯子']",23,2022/04/29 02:55:14,2022/04/29 02:57:23,00:09:43,Default,108286,General Multiple,FINISHED,none
Exp,None,3,Mozilla,Netscape,"5.0 (Windows NT 10.0; Win64; x64) AppleWebKit/537.36 (KHTML, like Gecko) Chrome/100.0.4896.127 Safari/537.36",1,1,1,a,a,None,29-03-22,29-03-22,10:56:01,0,0,0,0,0,1sy8ixw7o,108129,3.7.3,n,mp3player_Jed.png,手套,439,918,439,None,720,1280,24,720,24,4,2,1280,Win32,盤子,"['盒裝衛生紙', '羽毛撣子', '羽毛撣子', '蝴蝶', '椅子', '杯子']",24,2022/04/29 02:55:14,2022/04/29 02:57:23,00:09:43,Default,108286,General Multiple,FINISHED,none
Exp,None,0,Mozilla,Netscape,"5.0 (Windows NT 10.0; Win64; x64) AppleWebKit/537.36 (KHTML, like Gecko) Chrome/100.0.4896.127 Safari/537.36",1,1,1,l,l,None,29-03-22,29-03-22,10:56:01,0,0,0,0,0,1sy8ixw7o,108129,3.7.3,y,highlighterorange_Jed.png,毛線球,855,855,473,None,720,1280,24,720,24,4,2,1280,Win32,毛線球,"['盒裝衛生紙', '羽毛撣子', '羽毛撣子', '蝴蝶', '椅子', '杯子']",25,2022/04/29 02:55:14,2022/04/29 02:57:23,00:09:43,Default,108286,General Multiple,FINISHED,none
Exp,None,1,Mozilla,Netscape,"5.0 (Windows NT 10.0; Win64; x64) AppleWebKit/537.36 (KHTML, like Gecko) Chrome/100.0.4896.127 Safari/537.36",1,1,1,l,l,None,29-03-22,29-03-22,10:56:01,0,0,0,0,0,1sy8ixw7o,108129,3.7.3,n,lamp_CWL.png,毛線球,392,855,392,None,720,1280,24,720,24,4,2,1280,Win32,桌燈,"['盒裝衛生紙', '羽毛撣子', '羽毛撣子', '蝴蝶', '椅子', '杯子']",26,2022/04/29 02:55:14,2022/04/29 02:57:23,00:09:43,Default,108286,General Multiple,FINISHED,none
Exp,None,1,Mozilla,Netscape,"5.0 (Windows NT 10.0; Win64; x64) AppleWebKit/537.36 (KHTML, like Gecko) Chrome/100.0.4896.127 Safari/537.36",1,1,1,l,l,None,29-03-22,29-03-22,10:56:01,0,0,0,0,0,1sy8ixw7o,108129,3.7.3,n,plushy_LTY.png,桌燈,338,855,338,None,720,1280,24,720,24,4,2,1280,Win32,指甲銼,"['盒裝衛生紙', '羽毛撣子', '羽毛撣子', '蝴蝶', '椅子', '杯子']",27,2022/04/29 02:55:14,2022/04/29 02:57:23,00:09:43,Default,108286,General Multiple,FINISHED,none
Exp,None,4,Mozilla,Netscape,"5.0 (Windows NT 10.0; Win64; x64) AppleWebKit/537.36 (KHTML, like Gecko) Chrome/100.0.4896.127 Safari/537.36",1,1,1,a,a,None,29-03-22,29-03-22,10:56:01,0,0,0,0,0,1sy8ixw7o,108129,3.7.3,n,drainplug_LQN.png,盤子,552,855,552,None,720,1280,24,720,24,4,2,1280,Win32,長笛,"['盒裝衛生紙', '羽毛撣子', '羽毛撣子', '蝴蝶', '椅子', '杯子']",28,2022/04/29 02:55:14,2022/04/29 02:57:23,00:09:43,Default,108286,General Multiple,FINISHED,none
Exp,None,3,Mozilla,Netscape,"5.0 (Windows NT 10.0; Win64; x64) AppleWebKit/537.36 (KHTML, like Gecko) Chrome/100.0.4896.127 Safari/537.36",1,1,1,a,a,None,29-03-22,29-03-22,10:56:01,0,0,0,0,0,1sy8ixw7o,108129,3.7.3,n,phonebrown_Jed.png,桌燈,428,855,428,None,720,1280,24,720,24,4,2,1280,Win32,手鐲,"['盒裝衛生紙', '羽毛撣子', '羽毛撣子', '蝴蝶', '椅子', '杯子']",29,2022/04/29 02:55:14,2022/04/29 02:57:23,00:09:43,Default,108286,General Multiple,FINISHED,none
Exp,None,5,Mozilla,Netscape,"5.0 (Windows NT 10.0; Win64; x64) AppleWebKit/537.36 (KHTML, like Gecko) Chrome/100.0.4896.127 Safari/537.36",1,1,1,a,a,None,29-03-22,29-03-22,10:56:01,0,0,0,0,0,1sy8ixw7o,108129,3.7.3,n,tennisracket_CWL.png,毛線球,596,855,596,None,720,1280,24,720,24,4,2,1280,Win32,網球拍,"['盒裝衛生紙', '羽毛撣子', '羽毛撣子', '蝴蝶', '椅子', '杯子']",30,2022/04/29 02:55:14,2022/04/29 02:57:23,00:09:43,Default,108286,General Multiple,FINISHED,none
Exp,None,0,Mozilla,Netscape,"5.0 (Windows NT 10.0; Win64; x64) AppleWebKit/537.36 (KHTML, like Gecko) Chrome/100.0.4896.127 Safari/537.36",1,1,1,l,l,None,29-03-22,29-03-22,10:56:01,0,0,0,0,0,1sy8ixw7o,108129,3.7.3,n,boatorange_LTY.png,蝴蝶,512,855,512,None,720,1280,24,720,24,4,2,1280,Win32,蝴蝶,"['盒裝衛生紙', '羽毛撣子', '羽毛撣子', '蝴蝶', '椅子', '杯子']",31,2022/04/29 02:55:14,2022/04/29 02:57:23,00:09:43,Default,108286,General Multiple,FINISHED,none
Exp,None,4,Mozilla,Netscape,"5.0 (Windows NT 10.0; Win64; x64) AppleWebKit/537.36 (KHTML, like Gecko) Chrome/100.0.4896.127 Safari/537.36",1,1,1,a,a,None,29-03-22,29-03-22,10:56:01,0,0,0,0,0,1sy8ixw7o,108129,3.7.3,n,mousepadred_Willy.png,長笛,371,855,371,None,720,1280,24,720,24,4,2,1280,Win32,滑鼠墊,"['盒裝衛生紙', '羽毛撣子', '羽毛撣子', '蝴蝶', '椅子', '杯子']",32,2022/04/29 02:55:14,2022/04/29 02:57:23,00:09:43,Default,108286,General Multiple,FINISHED,none
Exp,None,1,Mozilla,Netscape,"5.0 (Windows NT 10.0; Win64; x64) AppleWebKit/537.36 (KHTML, like Gecko) Chrome/100.0.4896.127 Safari/537.36",1,1,1,l,l,None,29-03-22,29-03-22,10:56:01,0,0,0,0,0,1sy8ixw7o,108129,3.7.3,n,hammer_CJJ.png,滑鼠墊,581,855,581,None,720,1280,24,720,24,4,2,1280,Win32,錘子,"['盒裝衛生紙', '羽毛撣子', '羽毛撣子', '蝴蝶', '椅子', '杯子']",33,2022/04/29 02:55:14,2022/04/29 02:57:23,00:09:43,Default,108286,General Multiple,FINISHED,none
Exp,None,2,Mozilla,Netscape,"5.0 (Windows NT 10.0; Win64; x64) AppleWebKit/537.36 (KHTML, like Gecko) Chrome/100.0.4896.127 Safari/537.36",1,1,1,l,l,None,29-03-22,29-03-22,10:56:01,0,0,0,0,0,1sy8ixw7o,108129,3.7.3,n,coatbutton_Willy.png,滑鼠墊,368,855,368,None,720,1280,24,720,24,4,2,1280,Win32,外套鈕扣,"['盒裝衛生紙', '羽毛撣子', '羽毛撣子', '蝴蝶', '椅子', '杯子']",34,2022/04/29 02:55:14,2022/04/29 02:57:23,00:09:43,Default,108286,General Multiple,FINISHED,none
Exp,None,4,Mozilla,Netscape,"5.0 (Windows NT 10.0; Win64; x64) AppleWebKit/537.36 (KHTML, like Gecko) Chrome/100.0.4896.127 Safari/537.36",0,1,0,a,a,None,29-03-22,29-03-22,10:56:01,0,0,0,0,0,1sy8ixw7o,108129,3.7.3,n,gunpink_CKW.png,蝴蝶,403,855,403,None,720,1280,24,720,24,4,2,1280,Win32,剪刀,"['盒裝衛生紙', '羽毛撣子', '羽毛撣子', '蝴蝶', '椅子', '杯子']",35,2022/04/29 02:55:14,2022/04/29 02:57:23,00:09:43,Default,108286,General Multiple,FINISHED,none
Exp,None,3,Mozilla,Netscape,"5.0 (Windows NT 10.0; Win64; x64) AppleWebKit/537.36 (KHTML, like Gecko) Chrome/100.0.4896.127 Safari/537.36",1,1,1,a,a,None,29-03-22,29-03-22,10:56:01,0,0,0,0,0,1sy8ixw7o,108129,3.7.3,n,toothbrush_CJJ.png,錘子,411,855,411,None,720,1280,24,720,24,4,2,1280,Win32,牙刷,"['盒裝衛生紙', '羽毛撣子', '羽毛撣子', '蝴蝶', '椅子', '杯子']",36,2022/04/29 02:55:14,2022/04/29 02:57:23,00:09:43,Default,108286,General Multiple,FINISHED,none
Exp,None,5,Mozilla,Netscape,"5.0 (Windows NT 10.0; Win64; x64) AppleWebKit/537.36 (KHTML, like Gecko) Chrome/100.0.4896.127 Safari/537.36",1,1,1,a,a,None,29-03-22,29-03-22,10:56:01,0,0,0,0,0,1sy8ixw7o,108129,3.7.3,n,pipegreen_LQN.png,滑鼠墊,438,855,438,None,720,1280,24,720,24,4,2,1280,Win32,原子筆,"['盒裝衛生紙', '羽毛撣子', '羽毛撣子', '蝴蝶', '椅子', '杯子']",37,2022/04/29 02:55:14,2022/04/29 02:57:23,00:09:43,Default,108286,General Multiple,FINISHED,none
Exp,None,1,Mozilla,Netscape,"5.0 (Windows NT 10.0; Win64; x64) AppleWebKit/537.36 (KHTML, like Gecko) Chrome/100.0.4896.127 Safari/537.36",1,1,1,l,l,None,29-03-22,29-03-22,10:56:01,0,0,0,0,0,1sy8ixw7o,108129,3.7.3,n,plushyblue_LTY.png,原子筆,360,855,360,None,720,1280,24,720,24,4,2,1280,Win32,指甲銼,"['盒裝衛生紙', '羽毛撣子', '羽毛撣子', '蝴蝶', '椅子', '杯子']",38,2022/04/29 02:55:14,2022/04/29 02:57:23,00:09:43,Default,108286,General Multiple,FINISHED,none
Exp,None,0,Mozilla,Netscape,"5.0 (Windows NT 10.0; Win64; x64) AppleWebKit/537.36 (KHTML, like Gecko) Chrome/100.0.4896.127 Safari/537.36",1,1,1,l,l,None,29-03-22,29-03-22,10:56:01,0,0,0,0,0,1sy8ixw7o,108129,3.7.3,n,bin_CHN.png,蝴蝶,412,855,412,None,720,1280,24,720,24,4,2,1280,Win32,蝴蝶,"['盒裝衛生紙', '羽毛撣子', '羽毛撣子', '蝴蝶', '椅子', '杯子']",39,2022/04/29 02:55:14,2022/04/29 02:57:23,00:09:43,Default,108286,General Multiple,FINISHED,none
Exp,None,0,Mozilla,Netscape,"5.0 (Windows NT 10.0; Win64; x64) AppleWebKit/537.36 (KHTML, like Gecko) Chrome/100.0.4896.127 Safari/537.36",1,1,1,l,l,None,29-03-22,29-03-22,10:56:01,0,0,0,0,0,1sy8ixw7o,108129,3.7.3,n,toothpastepink_CKW.png,衣架,346,855,346,None,720,1280,24,720,24,4,2,1280,Win32,衣架,"['盒裝衛生紙', '羽毛撣子', '羽毛撣子', '蝴蝶', '椅子', '杯子']",40,2022/04/29 02:55:14,2022/04/29 02:57:23,00:09:43,Default,108286,General Multiple,FINISHED,none
Exp,None,2,Mozilla,Netscape,"5.0 (Windows NT 10.0; Win64; x64) AppleWebKit/537.36 (KHTML, like Gecko) Chrome/100.0.4896.127 Safari/537.36",1,1,1,l,l,None,29-03-22,29-03-22,10:56:01,0,0,0,0,0,1sy8ixw7o,108129,3.7.3,y,eraser_CKW.png,蝴蝶,813,813,420,None,720,1280,24,720,24,4,2,1280,Win32,襪子,"['盒裝衛生紙', '羽毛撣子', '羽毛撣子', '蝴蝶', '椅子', '杯子']",41,2022/04/29 02:55:14,2022/04/29 02:57:23,00:09:43,Default,108286,General Multiple,FINISHED,none
Exp,None,5,Mozilla,Netscape,"5.0 (Windows NT 10.0; Win64; x64) AppleWebKit/537.36 (KHTML, like Gecko) Chrome/100.0.4896.127 Safari/537.36",1,1,1,a,a,None,29-03-22,29-03-22,10:56:01,0,0,0,0,0,1sy8ixw7o,108129,3.7.3,n,screwdriver_Willy.png,原子筆,426,813,426,None,720,1280,24,720,24,4,2,1280,Win32,螺絲起子,"['盒裝衛生紙', '羽毛撣子', '羽毛撣子', '蝴蝶', '椅子', '杯子']",42,2022/04/29 02:55:14,2022/04/29 02:57:23,00:09:43,Default,108286,General Multiple,FINISHED,none
Exp,None,4,Mozilla,Netscape,"5.0 (Windows NT 10.0; Win64; x64) AppleWebKit/537.36 (KHTML, like Gecko) Chrome/100.0.4896.127 Safari/537.36",1,1,1,a,a,None,29-03-22,29-03-22,10:56:01,0,0,0,0,0,1sy8ixw7o,108129,3.7.3,n,icetray_LTY.png,蝴蝶,426,813,426,None,720,1280,24,720,24,4,2,1280,Win32,門板,"['盒裝衛生紙', '羽毛撣子', '羽毛撣子', '蝴蝶', '椅子', '杯子']",43,2022/04/29 02:55:14,2022/04/29 02:57:23,00:09:43,Default,108286,General Multiple,FINISHED,none
Exp,None,0,Mozilla,Netscape,"5.0 (Windows NT 10.0; Win64; x64) AppleWebKit/537.36 (KHTML, like Gecko) Chrome/100.0.4896.127 Safari/537.36",1,1,1,l,l,None,29-03-22,29-03-22,10:56:01,0,0,0,0,0,1sy8ixw7o,108129,3.7.3,n,airfreshenerorange_CJJ.png,空氣清新劑,340,813,340,None,720,1280,24,720,24,4,2,1280,Win32,空氣清新劑,"['盒裝衛生紙', '羽毛撣子', '羽毛撣子', '蝴蝶', '椅子', '杯子']",44,2022/04/29 02:55:14,2022/04/29 02:57:23,00:09:43,Default,108286,General Multiple,FINISHED,none
Exp,None,3,Mozilla,Netscape,"5.0 (Windows NT 10.0; Win64; x64) AppleWebKit/537.36 (KHTML, like Gecko) Chrome/100.0.4896.127 Safari/537.36",1,1,1,a,a,None,29-03-22,29-03-22,10:56:01,0,0,0,0,0,1sy8ixw7o,108129,3.7.3,n,knifepurple_HKL.png,螺絲起子,664,813,664,None,720,1280,24,720,24,4,2,1280,Win32,刀子,"['盒裝衛生紙', '羽毛撣子', '羽毛撣子', '蝴蝶', '椅子', '杯子']",45,2022/04/29 02:55:14,2022/04/29 02:57:23,00:09:43,Default,108286,General Multiple,FINISHED,none
Exp,None,1,Mozilla,Netscape,"5.0 (Windows NT 10.0; Win64; x64) AppleWebKit/537.36 (KHTML, like Gecko) Chrome/100.0.4896.127 Safari/537.36",1,1,1,l,l,None,29-03-22,29-03-22,10:56:01,0,0,0,0,0,1sy8ixw7o,108129,3.7.3,n,tv_LTY.png,刀子,415,813,415,None,720,1280,24,720,24,4,2,1280,Win32,盒子,"['盒裝衛生紙', '羽毛撣子', '羽毛撣子', '蝴蝶', '椅子', '杯子']",46,2022/04/29 02:55:14,2022/04/29 02:57:23,00:09:43,Default,108286,General Multiple,FINISHED,none
Exp,None,0,Mozilla,Netscape,"5.0 (Windows NT 10.0; Win64; x64) AppleWebKit/537.36 (KHTML, like Gecko) Chrome/100.0.4896.127 Safari/537.36",1,1,1,l,l,None,29-03-22,29-03-22,10:56:01,0,0,0,0,0,1sy8ixw7o,108129,3.7.3,n,chalk_LQN.png,卡車,547,813,547,None,720,1280,24,720,24,4,2,1280,Win32,卡車,"['盒裝衛生紙', '羽毛撣子', '羽毛撣子', '蝴蝶', '椅子', '杯子']",47,2022/04/29 02:55:14,2022/04/29 02:57:23,00:09:43,Default,108286,General Multiple,FINISHED,none
Exp,None,1,Mozilla,Netscape,"5.0 (Windows NT 10.0; Win64; x64) AppleWebKit/537.36 (KHTML, like Gecko) Chrome/100.0.4896.127 Safari/537.36",0,1,0,l,l,None,29-03-22,29-03-22,10:56:01,0,0,0,0,0,1sy8ixw7o,108129,3.7.3,n,gloveblue_CWL.png,卡車,409,813,458,None,720,1280,24,720,24,4,2,1280,Win32,手套,"['盒裝衛生紙', '羽毛撣子', '羽毛撣子', '蝴蝶', '椅子', '杯子']",48,2022/04/29 02:55:14,2022/04/29 02:57:23,00:09:43,Default,108286,General Multiple,FINISHED,none
Exp,None,3,Mozilla,Netscape,"5.0 (Windows NT 10.0; Win64; x64) AppleWebKit/537.36 (KHTML, like Gecko) Chrome/100.0.4896.127 Safari/537.36",1,1,1,a,a,None,29-03-22,29-03-22,10:56:01,0,0,0,0,0,1sy8ixw7o,108129,3.7.3,n,usbbrown_CKW.png,盒子,516,813,516,None,720,1280,24,720,24,4,2,1280,Win32,領帶,"['盒裝衛生紙', '羽毛撣子', '羽毛撣子', '蝴蝶', '椅子', '杯子']",49,2022/04/29 02:55:14,2022/04/29 02:57:23,00:09:43,Default,108286,General Multiple,FINISHED,none
Exp,None,2,Mozilla,Netscape,"5.0 (Windows NT 10.0; Win64; x64) AppleWebKit/537.36 (KHTML, like Gecko) Chrome/100.0.4896.127 Safari/537.36",1,1,1,l,l,None,29-03-22,29-03-22,10:56:01,0,0,0,0,0,1sy8ixw7o,108129,3.7.3,n,sponge_CKW.png,手套,514,813,514,None,720,1280,24,720,24,4,2,1280,Win32,枕頭,"['盒裝衛生紙', '羽毛撣子', '羽毛撣子', '蝴蝶', '椅子', '杯子']",50,2022/04/29 02:55:14,2022/04/29 02:57:23,00:09:43,Default,108286,General Multiple,FINISHED,none
Exp,None,4,Mozilla,Netscape,"5.0 (Windows NT 10.0; Win64; x64) AppleWebKit/537.36 (KHTML, like Gecko) Chrome/100.0.4896.127 Safari/537.36",1,1,1,a,a,None,29-03-22,29-03-22,10:56:01,0,0,0,0,0,1sy8ixw7o,108129,3.7.3,n,iceskatepink_Jed.png,卡車,1142,813,1142,None,720,1280,24,720,24,4,2,1280,Win32,鬧鐘,"['盒裝衛生紙', '羽毛撣子', '羽毛撣子', '蝴蝶', '椅子', '杯子']",51,2022/04/29 02:55:14,2022/04/29 02:57:23,00:09:43,Default,108286,General Multiple,FINISHED,none
Exp,None,4,Mozilla,Netscape,"5.0 (Windows NT 10.0; Win64; x64) AppleWebKit/537.36 (KHTML, like Gecko) Chrome/100.0.4896.127 Safari/537.36",1,1,1,a,a,None,29-03-22,29-03-22,10:56:01,0,0,0,0,0,1sy8ixw7o,108129,3.7.3,n,scarforange_Willy.png,手套,349,813,349,None,720,1280,24,720,24,4,2,1280,Win32,圍巾,"['盒裝衛生紙', '羽毛撣子', '羽毛撣子', '蝴蝶', '椅子', '杯子']",52,2022/04/29 02:55:14,2022/04/29 02:57:23,00:09:43,Default,108286,General Multiple,FINISHED,none
Exp,None,2,Mozilla,Netscape,"5.0 (Windows NT 10.0; Win64; x64) AppleWebKit/537.36 (KHTML, like Gecko) Chrome/100.0.4896.127 Safari/537.36",1,1,1,l,l,None,29-03-22,29-03-22,10:56:01,0,0,0,0,0,1sy8ixw7o,108129,3.7.3,n,magnetbrown_LQN.png,鬧鐘,406,813,406,None,720,1280,24,720,24,4,2,1280,Win32,瓶子,"['盒裝衛生紙', '羽毛撣子', '羽毛撣子', '蝴蝶', '椅子', '杯子']",53,2022/04/29 02:55:14,2022/04/29 02:57:23,00:09:43,Default,108286,General Multiple,FINISHED,none
Exp,None,5,Mozilla,Netscape,"5.0 (Windows NT 10.0; Win64; x64) AppleWebKit/537.36 (KHTML, like Gecko) Chrome/100.0.4896.127 Safari/537.36",1,1,1,a,a,None,29-03-22,29-03-22,10:56:01,0,0,0,0,0,1sy8ixw7o,108129,3.7.3,n,slippersblue_Willy.png,領帶,661,813,661,None,720,1280,24,720,24,4,2,1280,Win32,拖鞋,"['盒裝衛生紙', '羽毛撣子', '羽毛撣子', '蝴蝶', '椅子', '杯子']",54,2022/04/29 02:55:14,2022/04/29 02:57:23,00:09:43,Default,108286,General Multiple,FINISHED,none
Exp,None,0,Mozilla,Netscape,"5.0 (Windows NT 10.0; Win64; x64) AppleWebKit/537.36 (KHTML, like Gecko) Chrome/100.0.4896.127 Safari/537.36",1,1,1,l,l,None,29-03-22,29-03-22,10:56:01,0,0,0,0,0,1sy8ixw7o,108129,3.7.3,n,sofapink_HKL.png,沙發,610,813,610,None,720,1280,24,720,24,4,2,1280,Win32,沙發,"['盒裝衛生紙', '羽毛撣子', '羽毛撣子', '蝴蝶', '椅子', '杯子']",55,2022/04/29 02:55:14,2022/04/29 02:57:23,00:09:43,Default,108286,General Multiple,FINISHED,none
Exp,None,3,Mozilla,Netscape,"5.0 (Windows NT 10.0; Win64; x64) AppleWebKit/537.36 (KHTML, like Gecko) Chrome/100.0.4896.127 Safari/537.36",0,0,1,a,a,None,29-03-22,29-03-22,10:56:01,0,0,0,0,0,1sy8ixw7o,108129,3.7.3,y,duck_CHN.png,瓶子,700,700,628,None,720,1280,24,720,24,4,2,1280,Win32,夾克,"['盒裝衛生紙', '羽毛撣子', '羽毛撣子', '蝴蝶', '椅子', '杯子']",56,2022/04/29 02:55:14,2022/04/29 02:57:23,00:09:43,Default,108286,General Multiple,FINISHED,none
Exp,None,4,Mozilla,Netscape,"5.0 (Windows NT 10.0; Win64; x64) AppleWebKit/537.36 (KHTML, like Gecko) Chrome/100.0.4896.127 Safari/537.36",1,0,1,a,a,None,29-03-22,29-03-22,10:56:01,0,0,0,0,0,1sy8ixw7o,108129,3.7.3,n,lampblue_CWL.png,瓶子,477,700,477,None,720,1280,24,720,24,4,2,1280,Win32,桌燈,"['盒裝衛生紙', '羽毛撣子', '羽毛撣子', '蝴蝶', '椅子', '杯子']",57,2022/04/29 02:55:14,2022/04/29 02:57:23,00:09:43,Default,108286,General Multiple,FINISHED,none
Exp,None,1,Mozilla,Netscape,"5.0 (Windows NT 10.0; Win64; x64) AppleWebKit/537.36 (KHTML, like Gecko) Chrome/100.0.4896.127 Safari/537.36",1,0,1,l,l,None,29-03-22,29-03-22,10:56:01,0,0,0,0,0,1sy8ixw7o,108129,3.7.3,n,coaster_Jed.png,桌燈,463,700,463,None,720,1280,24,720,24,4,2,1280,Win32,鑷子,"['盒裝衛生紙', '羽毛撣子', '羽毛撣子', '蝴蝶', '椅子', '杯子']",58,2022/04/29 02:55:14,2022/04/29 02:57:23,00:09:43,Default,108286,General Multiple,FINISHED,none
Exp,None,3,Mozilla,Netscape,"5.0 (Windows NT 10.0; Win64; x64) AppleWebKit/537.36 (KHTML, like Gecko) Chrome/100.0.4896.127 Safari/537.36",1,0,1,a,a,None,29-03-22,29-03-22,10:56:01,0,0,0,0,0,1sy8ixw7o,108129,3.7.3,n,chaliceorange_CKW.png,夾克,449,700,449,None,720,1280,24,720,24,4,2,1280,Win32,書桌,"['盒裝衛生紙', '羽毛撣子', '羽毛撣子', '蝴蝶', '椅子', '杯子']",59,2022/04/29 02:55:14,2022/04/29 02:57:23,00:09:43,Default,108286,General Multiple,FINISHED,none
Exp,None,0,Mozilla,Netscape,"5.0 (Windows NT 10.0; Win64; x64) AppleWebKit/537.36 (KHTML, like Gecko) Chrome/100.0.4896.127 Safari/537.36",1,0,1,l,l,None,29-03-22,29-03-22,10:56:01,0,0,0,0,0,1sy8ixw7o,108129,3.7.3,n,sodacan_HKL.png,汽水罐,367,700,367,None,720,1280,24,720,24,4,2,1280,Win32,汽水罐,"['盒裝衛生紙', '羽毛撣子', '羽毛撣子', '蝴蝶', '椅子', '杯子']",60,2022/04/29 02:55:14,2022/04/29 02:57:23,00:09:43,Default,108286,General Multiple,FINISHED,none
Exp,None,5,Mozilla,Netscape,"5.0 (Windows NT 10.0; Win64; x64) AppleWebKit/537.36 (KHTML, like Gecko) Chrome/100.0.4896.127 Safari/537.36",1,0,1,a,a,None,29-03-22,29-03-22,10:56:01,0,0,0,0,0,1sy8ixw7o,108129,3.7.3,n,alarm_LQN.png,夾克,416,700,416,None,720,1280,24,720,24,4,2,1280,Win32,梳子,"['盒裝衛生紙', '羽毛撣子', '羽毛撣子', '蝴蝶', '椅子', '杯子']",61,2022/04/29 02:55:14,2022/04/29 02:57:23,00:09:43,Default,108286,General Multiple,FINISHED,none
Exp,None,3,Mozilla,Netscape,"5.0 (Windows NT 10.0; Win64; x64) AppleWebKit/537.36 (KHTML, like Gecko) Chrome/100.0.4896.127 Safari/537.36",1,0,1,a,a,None,29-03-22,29-03-22,10:56:01,0,0,0,0,0,1sy8ixw7o,108129,3.7.3,n,gogglesred_CHN.png,書桌,722,700,722,None,720,1280,24,720,24,4,2,1280,Win32,支票,"['盒裝衛生紙', '羽毛撣子', '羽毛撣子', '蝴蝶', '椅子', '杯子']",62,2022/04/29 02:55:14,2022/04/29 02:57:23,00:09:43,Default,108286,General Multiple,FINISHED,none
Exp,None,4,Mozilla,Netscape,"5.0 (Windows NT 10.0; Win64; x64) AppleWebKit/537.36 (KHTML, like Gecko) Chrome/100.0.4896.127 Safari/537.36",1,0,1,a,a,None,29-03-22,29-03-22,10:56:01,0,0,0,0,0,1sy8ixw7o,108129,3.7.3,n,chest_CHN.png,書桌,362,700,362,None,720,1280,24,720,24,4,2,1280,Win32,寶箱,"['盒裝衛生紙', '羽毛撣子', '羽毛撣子', '蝴蝶', '椅子', '杯子']",63,2022/04/29 02:55:14,2022/04/29 02:57:23,00:09:43,Default,108286,General Multiple,FINISHED,none
Exp,None,0,Mozilla,Netscape,"5.0 (Windows NT 10.0; Win64; x64) AppleWebKit/537.36 (KHTML, like Gecko) Chrome/100.0.4896.127 Safari/537.36",1,0,1,l,l,None,29-03-22,29-03-22,10:56:01,0,0,0,0,0,1sy8ixw7o,108129,3.7.3,n,screwdriverpurple_Willy.png,螺絲起子,358,700,358,None,720,1280,24,720,24,4,2,1280,Win32,螺絲起子,"['盒裝衛生紙', '羽毛撣子', '羽毛撣子', '蝴蝶', '椅子', '杯子']",64,2022/04/29 02:55:14,2022/04/29 02:57:23,00:09:43,Default,108286,General Multiple,FINISHED,none
Exp,None,4,Mozilla,Netscape,"5.0 (Windows NT 10.0; Win64; x64) AppleWebKit/537.36 (KHTML, like Gecko) Chrome/100.0.4896.127 Safari/537.36",1,0,1,a,a,None,29-03-22,29-03-22,10:56:01,0,0,0,0,0,1sy8ixw7o,108129,3.7.3,n,purseblue_HKL.png,梳子,388,700,388,None,720,1280,24,720,24,4,2,1280,Win32,手提包,"['盒裝衛生紙', '羽毛撣子', '羽毛撣子', '蝴蝶', '椅子', '杯子']",65,2022/04/29 02:55:14,2022/04/29 02:57:23,00:09:43,Default,108286,General Multiple,FINISHED,none
Exp,None,4,Mozilla,Netscape,"5.0 (Windows NT 10.0; Win64; x64) AppleWebKit/537.36 (KHTML, like Gecko) Chrome/100.0.4896.127 Safari/537.36",1,0,1,a,a,None,29-03-22,29-03-22,10:56:01,0,0,0,0,0,1sy8ixw7o,108129,3.7.3,n,bookyellow_CWL.png,支票,426,700,426,None,720,1280,24,720,24,4,2,1280,Win32,精裝書,"['盒裝衛生紙', '羽毛撣子', '羽毛撣子', '蝴蝶', '椅子', '杯子']",66,2022/04/29 02:55:14,2022/04/29 02:57:23,00:09:43,Default,108286,General Multiple,FINISHED,none
Exp,None,4,Mozilla,Netscape,"5.0 (Windows NT 10.0; Win64; x64) AppleWebKit/537.36 (KHTML, like Gecko) Chrome/100.0.4896.127 Safari/537.36",1,0,1,a,a,None,29-03-22,29-03-22,10:56:01,0,0,0,0,0,1sy8ixw7o,108129,3.7.3,n,yogamat_Willy.png,寶箱,393,700,393,None,720,1280,24,720,24,4,2,1280,Win32,瑜珈墊,"['盒裝衛生紙', '羽毛撣子', '羽毛撣子', '蝴蝶', '椅子', '杯子']",67,2022/04/29 02:55:14,2022/04/29 02:57:23,00:09:43,Default,108286,General Multiple,FINISHED,none
Exp,None,3,Mozilla,Netscape,"5.0 (Windows NT 10.0; Win64; x64) AppleWebKit/537.36 (KHTML, like Gecko) Chrome/100.0.4896.127 Safari/537.36",1,0,1,a,a,None,29-03-22,29-03-22,10:56:01,0,0,0,0,0,1sy8ixw7o,108129,3.7.3,n,shoesred_CWL.png,手提包,380,700,380,None,720,1280,24,720,24,4,2,1280,Win32,鞋子,"['盒裝衛生紙', '羽毛撣子', '羽毛撣子', '蝴蝶', '椅子', '杯子']",68,2022/04/29 02:55:14,2022/04/29 02:57:23,00:09:43,Default,108286,General Multiple,FINISHED,none
Exp,None,4,Mozilla,Netscape,"5.0 (Windows NT 10.0; Win64; x64) AppleWebKit/537.36 (KHTML, like Gecko) Chrome/100.0.4896.127 Safari/537.36",1,0,1,a,a,None,29-03-22,29-03-22,10:56:01,0,0,0,0,0,1sy8ixw7o,108129,3.7.3,n,lotionorange_CKW.png,手提包,557,700,557,None,720,1280,24,720,24,4,2,1280,Win32,錢包,"['盒裝衛生紙', '羽毛撣子', '羽毛撣子', '蝴蝶', '椅子', '杯子']",69,2022/04/29 02:55:14,2022/04/29 02:57:23,00:09:43,Default,108286,General Multiple,FINISHED,none
Exp,None,1,Mozilla,Netscape,"5.0 (Windows NT 10.0; Win64; x64) AppleWebKit/537.36 (KHTML, like Gecko) Chrome/100.0.4896.127 Safari/537.36",1,0,1,l,l,None,29-03-22,29-03-22,10:56:01,0,0,0,0,0,1sy8ixw7o,108129,3.7.3,n,pipe_LQN.png,錢包,452,700,452,None,720,1280,24,720,24,4,2,1280,Win32,原子筆,"['盒裝衛生紙', '羽毛撣子', '羽毛撣子', '蝴蝶', '椅子', '杯子']",70,2022/04/29 02:55:14,2022/04/29 02:57:23,00:09:43,Default,108286,General Multiple,FINISHED,none
Exp,None,5,Mozilla,Netscape,"5.0 (Windows NT 10.0; Win64; x64) AppleWebKit/537.36 (KHTML, like Gecko) Chrome/100.0.4896.127 Safari/537.36",1,0,1,a,a,None,29-03-22,29-03-22,10:56:01,0,0,0,0,0,1sy8ixw7o,108129,3.7.3,n,alarmblue_LQN.png,精裝書,619,700,619,None,720,1280,24,720,24,4,2,1280,Win32,梳子,"['盒裝衛生紙', '羽毛撣子', '羽毛撣子', '蝴蝶', '椅子', '杯子']",71,2022/04/29 02:55:14,2022/04/29 02:57:23,00:09:43,Default,108286,General Multiple,FINISHED,none
Exp,None,1,Mozilla,Netscape,"5.0 (Windows NT 10.0; Win64; x64) AppleWebKit/537.36 (KHTML, like Gecko) Chrome/100.0.4896.127 Safari/537.36",1,1,1,l,l,None,29-03-22,29-03-22,10:56:01,0,0,0,0,0,1sy8ixw7o,108129,3.7.3,y,forkorange_HKL.png,梳子,865,865,421,None,720,1280,24,720,24,4,2,1280,Win32,叉子,"['盒裝衛生紙', '羽毛撣子', '羽毛撣子', '蝴蝶', '椅子', '杯子']",72,2022/04/29 02:55:14,2022/04/29 02:57:23,00:09:43,Default,108286,General Multiple,FINISHED,none
Exp,None,2,Mozilla,Netscape,"5.0 (Windows NT 10.0; Win64; x64) AppleWebKit/537.36 (KHTML, like Gecko) Chrome/100.0.4896.127 Safari/537.36",1,1,1,l,l,None,29-03-22,29-03-22,10:56:01,0,0,0,0,0,1sy8ixw7o,108129,3.7.3,n,umbrella_Willy.png,梳子,561,865,561,None,720,1280,24,720,24,4,2,1280,Win32,雨傘,"['盒裝衛生紙', '羽毛撣子', '羽毛撣子', '蝴蝶', '椅子', '杯子']",73,2022/04/29 02:55:14,2022/04/29 02:57:23,00:09:43,Default,108286,General Multiple,FINISHED,none
Exp,None,4,Mozilla,Netscape,"5.0 (Windows NT 10.0; Win64; x64) AppleWebKit/537.36 (KHTML, like Gecko) Chrome/100.0.4896.127 Safari/537.36",1,1,1,a,a,None,29-03-22,29-03-22,10:56:01,0,0,0,0,0,1sy8ixw7o,108129,3.7.3,n,cookiejarbrown_HKL.png,原子筆,432,865,432,None,720,1280,24,720,24,4,2,1280,Win32,餅乾罐,"['盒裝衛生紙', '羽毛撣子', '羽毛撣子', '蝴蝶', '椅子', '杯子']",74,2022/04/29 02:55:14,2022/04/29 02:57:23,00:09:43,Default,108286,General Multiple,FINISHED,none
Exp,None,5,Mozilla,Netscape,"5.0 (Windows NT 10.0; Win64; x64) AppleWebKit/537.36 (KHTML, like Gecko) Chrome/100.0.4896.127 Safari/537.36",1,1,1,a,a,None,29-03-22,29-03-22,10:56:01,0,0,0,0,0,1sy8ixw7o,108129,3.7.3,n,coasterred_Jed.png,原子筆,410,865,410,None,720,1280,24,720,24,4,2,1280,Win32,鑷子,"['盒裝衛生紙', '羽毛撣子', '羽毛撣子', '蝴蝶', '椅子', '杯子']",75,2022/04/29 02:55:14,2022/04/29 02:57:23,00:09:43,Default,108286,General Multiple,FINISHED,none
Exp,None,4,Mozilla,Netscape,"5.0 (Windows NT 10.0; Win64; x64) AppleWebKit/537.36 (KHTML, like Gecko) Chrome/100.0.4896.127 Safari/537.36",1,1,1,a,a,None,29-03-22,29-03-22,10:56:01,0,0,0,0,0,1sy8ixw7o,108129,3.7.3,n,motorcycle_LQN.png,叉子,642,865,642,None,720,1280,24,720,24,4,2,1280,Win32,巴士,"['盒裝衛生紙', '羽毛撣子', '羽毛撣子', '蝴蝶', '椅子', '杯子']",76,2022/04/29 02:55:14,2022/04/29 02:57:23,00:09:43,Default,108286,General Multiple,FINISHED,none
Exp,None,4,Mozilla,Netscape,"5.0 (Windows NT 10.0; Win64; x64) AppleWebKit/537.36 (KHTML, like Gecko) Chrome/100.0.4896.127 Safari/537.36",1,1,1,a,a,None,29-03-22,29-03-22,10:56:01,0,0,0,0,0,1sy8ixw7o,108129,3.7.3,n,volleyballpink_LTY.png,雨傘,424,865,424,None,720,1280,24,720,24,4,2,1280,Win32,郵票,"['盒裝衛生紙', '羽毛撣子', '羽毛撣子', '蝴蝶', '椅子', '杯子']",77,2022/04/29 02:55:14,2022/04/29 02:57:23,00:09:43,Default,108286,General Multiple,FINISHED,none
Exp,None,4,Mozilla,Netscape,"5.0 (Windows NT 10.0; Win64; x64) AppleWebKit/537.36 (KHTML, like Gecko) Chrome/100.0.4896.127 Safari/537.36",1,1,1,a,a,None,29-03-22,29-03-22,10:56:01,0,0,0,0,0,1sy8ixw7o,108129,3.7.3,n,chalice_CKW.png,餅乾罐,404,865,404,None,720,1280,24,720,24,4,2,1280,Win32,書桌,"['盒裝衛生紙', '羽毛撣子', '羽毛撣子', '蝴蝶', '椅子', '杯子']",78,2022/04/29 02:55:14,2022/04/29 02:57:23,00:09:43,Default,108286,General Multiple,FINISHED,none
Exp,None,2,Mozilla,Netscape,"5.0 (Windows NT 10.0; Win64; x64) AppleWebKit/537.36 (KHTML, like Gecko) Chrome/100.0.4896.127 Safari/537.36",1,1,1,l,l,None,29-03-22,29-03-22,10:56:01,0,0,0,0,0,1sy8ixw7o,108129,3.7.3,n,icetrayred_LTY.png,郵票,327,865,327,None,720,1280,24,720,24,4,2,1280,Win32,門板,"['盒裝衛生紙', '羽毛撣子', '羽毛撣子', '蝴蝶', '椅子', '杯子']",79,2022/04/29 02:55:14,2022/04/29 02:57:23,00:09:43,Default,108286,General Multiple,FINISHED,none
Exp,None,2,Mozilla,Netscape,"5.0 (Windows NT 10.0; Win64; x64) AppleWebKit/537.36 (KHTML, like Gecko) Chrome/100.0.4896.127 Safari/537.36",1,1,1,l,l,None,29-03-22,29-03-22,10:56:01,0,0,0,0,0,1sy8ixw7o,108129,3.7.3,n,tvpurple_LTY.png,書桌,402,865,402,None,720,1280,24,720,24,4,2,1280,Win32,盒子,"['盒裝衛生紙', '羽毛撣子', '羽毛撣子', '蝴蝶', '椅子', '杯子']",80,2022/04/29 02:55:14,2022/04/29 02:57:23,00:09:43,Default,108286,General Multiple,FINISHED,none
Exp,None,0,Mozilla,Netscape,"5.0 (Windows NT 10.0; Win64; x64) AppleWebKit/537.36 (KHTML, like Gecko) Chrome/100.0.4896.127 Safari/537.36",1,1,1,l,l,None,29-03-22,29-03-22,10:56:01,0,0,0,0,0,1sy8ixw7o,108129,3.7.3,n,bonebrown_CKW.png,帽子,480,865,480,None,720,1280,24,720,24,4,2,1280,Win32,帽子,"['盒裝衛生紙', '羽毛撣子', '羽毛撣子', '蝴蝶', '椅子', '杯子']",81,2022/04/29 02:55:14,2022/04/29 02:57:23,00:09:43,Default,108286,General Multiple,FINISHED,none
Exp,None,5,Mozilla,Netscape,"5.0 (Windows NT 10.0; Win64; x64) AppleWebKit/537.36 (KHTML, like Gecko) Chrome/100.0.4896.127 Safari/537.36",1,1,1,a,a,None,29-03-22,29-03-22,10:56:01,0,0,0,0,0,1sy8ixw7o,108129,3.7.3,n,notepad_CJJ.png,郵票,502,865,502,None,720,1280,24,720,24,4,2,1280,Win32,記事本,"['盒裝衛生紙', '羽毛撣子', '羽毛撣子', '蝴蝶', '椅子', '杯子']",82,2022/04/29 02:55:14,2022/04/29 02:57:23,00:09:43,Default,108286,General Multiple,FINISHED,none
Exp,None,5,Mozilla,Netscape,"5.0 (Windows NT 10.0; Win64; x64) AppleWebKit/537.36 (KHTML, like Gecko) Chrome/100.0.4896.127 Safari/537.36",1,1,1,a,a,None,29-03-22,29-03-22,10:56:01,0,0,0,0,0,1sy8ixw7o,108129,3.7.3,n,icecreampurple_CHN.png,書桌,409,865,409,None,720,1280,24,720,24,4,2,1280,Win32,盒裝衛生紙,"['盒裝衛生紙', '羽毛撣子', '羽毛撣子', '蝴蝶', '椅子', '杯子']",83,2022/04/29 02:55:14,2022/04/29 02:57:23,00:09:43,Default,108286,General Multiple,FINISHED,none
Exp,None,2,Mozilla,Netscape,"5.0 (Windows NT 10.0; Win64; x64) AppleWebKit/537.36 (KHTML, like Gecko) Chrome/100.0.4896.127 Safari/537.36",1,1,1,l,l,None,29-03-22,29-03-22,10:56:01,0,0,0,0,0,1sy8ixw7o,108129,3.7.3,y,screw_CHN.png,記事本,913,913,454,None,720,1280,24,720,24,4,2,1280,Win32,螺絲釘,"['盒裝衛生紙', '羽毛撣子', '羽毛撣子', '蝴蝶', '椅子', '杯子']",84,2022/04/29 02:55:14,2022/04/29 02:57:23,00:09:43,Default,108286,General Multiple,FINISHED,none
Exp,None,4,Mozilla,Netscape,"5.0 (Windows NT 10.0; Win64; x64) AppleWebKit/537.36 (KHTML, like Gecko) Chrome/100.0.4896.127 Safari/537.36",1,1,1,a,a,None,29-03-22,29-03-22,10:56:01,0,0,0,0,0,1sy8ixw7o,108129,3.7.3,n,bat_CHN.png,帽子,362,913,362,None,720,1280,24,720,24,4,2,1280,Win32,球棒,"['盒裝衛生紙', '羽毛撣子', '羽毛撣子', '蝴蝶', '椅子', '杯子']",85,2022/04/29 02:55:14,2022/04/29 02:57:23,00:09:43,Default,108286,General Multiple,FINISHED,none
Exp,None,2,Mozilla,Netscape,"5.0 (Windows NT 10.0; Win64; x64) AppleWebKit/537.36 (KHTML, like Gecko) Chrome/100.0.4896.127 Safari/537.36",1,1,1,l,l,None,29-03-22,29-03-22,10:56:01,0,0,0,0,0,1sy8ixw7o,108129,3.7.3,n,cookiejar_HKL.png,螺絲釘,393,913,393,None,720,1280,24,720,24,4,2,1280,Win32,餅乾罐,"['盒裝衛生紙', '羽毛撣子', '羽毛撣子', '蝴蝶', '椅子', '杯子']",86,2022/04/29 02:55:14,2022/04/29 02:57:23,00:09:43,Default,108286,General Multiple,FINISHED,none
Exp,None,0,Mozilla,Netscape,"5.0 (Windows NT 10.0; Win64; x64) AppleWebKit/537.36 (KHTML, like Gecko) Chrome/100.0.4896.127 Safari/537.36",1,1,1,l,l,None,29-03-22,29-03-22,10:56:01,0,0,0,0,0,1sy8ixw7o,108129,3.7.3,n,skirtpink_CJJ.png,裙子,533,913,533,None,720,1280,24,720,24,4,2,1280,Win32,裙子,"['盒裝衛生紙', '羽毛撣子', '羽毛撣子', '蝴蝶', '椅子', '杯子']",87,2022/04/29 02:55:14,2022/04/29 02:57:23,00:09:43,Default,108286,General Multiple,FINISHED,none
Exp,None,4,Mozilla,Netscape,"5.0 (Windows NT 10.0; Win64; x64) AppleWebKit/537.36 (KHTML, like Gecko) Chrome/100.0.4896.127 Safari/537.36",1,1,1,a,a,None,29-03-22,29-03-22,10:56:01,0,0,0,0,0,1sy8ixw7o,108129,3.7.3,n,cup_CWL.png,螺絲釘,476,913,476,None,720,1280,24,720,24,4,2,1280,Win32,杯子,"['盒裝衛生紙', '羽毛撣子', '羽毛撣子', '蝴蝶', '椅子', '杯子']",88,2022/04/29 02:55:14,2022/04/29 02:57:23,00:09:43,Default,108286,General Multiple,FINISHED,none
Exp,None,2,Mozilla,Netscape,"5.0 (Windows NT 10.0; Win64; x64) AppleWebKit/537.36 (KHTML, like Gecko) Chrome/100.0.4896.127 Safari/537.36",1,1,1,l,l,None,29-03-22,29-03-22,10:56:01,0,0,0,0,0,1sy8ixw7o,108129,3.7.3,n,skirt_CJJ.png,裙子,426,913,426,None,720,1280,24,720,24,4,2,1280,Win32,裙子,"['盒裝衛生紙', '羽毛撣子', '羽毛撣子', '蝴蝶', '椅子', '杯子']",89,2022/04/29 02:55:14,2022/04/29 02:57:23,00:09:43,Default,108286,General Multiple,FINISHED,none
Exp,None,0,Mozilla,Netscape,"5.0 (Windows NT 10.0; Win64; x64) AppleWebKit/537.36 (KHTML, like Gecko) Chrome/100.0.4896.127 Safari/537.36",1,1,1,l,l,None,29-03-22,29-03-22,10:56:01,0,0,0,0,0,1sy8ixw7o,108129,3.7.3,n,helmetyellow_HKL.png,安全帽,369,913,369,None,720,1280,24,720,24,4,2,1280,Win32,安全帽,"['盒裝衛生紙', '羽毛撣子', '羽毛撣子', '蝴蝶', '椅子', '杯子']",90,2022/04/29 02:55:14,2022/04/29 02:57:23,00:09:43,Default,108286,General Multiple,FINISHED,none
Exp,None,3,Mozilla,Netscape,"5.0 (Windows NT 10.0; Win64; x64) AppleWebKit/537.36 (KHTML, like Gecko) Chrome/100.0.4896.127 Safari/537.36",0,0,1,a,a,None,29-03-22,29-03-22,10:56:01,0,0,0,0,0,1sy8ixw7o,108129,3.7.3,y,blouse_CJJ.png,杯子,804,804,389,None,720,1280,24,720,24,4,2,1280,Win32,襯衫,"['盒裝衛生紙', '羽毛撣子', '羽毛撣子', '蝴蝶', '椅子', '杯子']",91,2022/04/29 02:55:14,2022/04/29 02:57:23,00:09:43,Default,108286,General Multiple,FINISHED,none
Exp,None,0,Mozilla,Netscape,"5.0 (Windows NT 10.0; Win64; x64) AppleWebKit/537.36 (KHTML, like Gecko) Chrome/100.0.4896.127 Safari/537.36",1,0,1,l,l,None,29-03-22,29-03-22,10:56:01,0,0,0,0,0,1sy8ixw7o,108129,3.7.3,n,paperbag_CKW.png,旗幟,1539,804,1539,None,720,1280,24,720,24,4,2,1280,Win32,旗幟,"['盒裝衛生紙', '羽毛撣子', '羽毛撣子', '蝴蝶', '椅子', '杯子']",92,2022/04/29 02:55:14,2022/04/29 02:57:23,00:09:43,Default,108286,General Multiple,FINISHED,none
Exp,None,2,Mozilla,Netscape,"5.0 (Windows NT 10.0; Win64; x64) AppleWebKit/537.36 (KHTML, like Gecko) Chrome/100.0.4896.127 Safari/537.36",1,0,1,l,l,None,29-03-22,29-03-22,10:56:01,0,0,0,0,0,1sy8ixw7o,108129,3.7.3,n,frameyellow_CKW.png,襯衫,574,804,574,None,720,1280,24,720,24,4,2,1280,Win32,書籤,"['盒裝衛生紙', '羽毛撣子', '羽毛撣子', '蝴蝶', '椅子', '杯子']",93,2022/04/29 02:55:14,2022/04/29 02:57:23,00:09:43,Default,108286,General Multiple,FINISHED,none
Exp,None,4,Mozilla,Netscape,"5.0 (Windows NT 10.0; Win64; x64) AppleWebKit/537.36 (KHTML, like Gecko) Chrome/100.0.4896.127 Safari/537.36",1,0,1,a,a,None,29-03-22,29-03-22,10:56:01,0,0,0,0,0,1sy8ixw7o,108129,3.7.3,n,usb_CKW.png,安全帽,473,804,473,None,720,1280,24,720,24,4,2,1280,Win32,領帶,"['盒裝衛生紙', '羽毛撣子', '羽毛撣子', '蝴蝶', '椅子', '杯子']",94,2022/04/29 02:55:14,2022/04/29 02:57:23,00:09:43,Default,108286,General Multiple,FINISHED,none
Exp,None,3,Mozilla,Netscape,"5.0 (Windows NT 10.0; Win64; x64) AppleWebKit/537.36 (KHTML, like Gecko) Chrome/100.0.4896.127 Safari/537.36",1,0,1,a,a,None,29-03-22,29-03-22,10:56:01,0,0,0,0,0,1sy8ixw7o,108129,3.7.3,n,lego_LTY.png,旗幟,379,804,379,None,720,1280,24,720,24,4,2,1280,Win32,花朵,"['盒裝衛生紙', '羽毛撣子', '羽毛撣子', '蝴蝶', '椅子', '杯子']",95,2022/04/29 02:55:14,2022/04/29 02:57:23,00:09:43,Default,108286,General Multiple,FINISHED,none
Exp,None,4,Mozilla,Netscape,"5.0 (Windows NT 10.0; Win64; x64) AppleWebKit/537.36 (KHTML, like Gecko) Chrome/100.0.4896.127 Safari/537.36",1,0,1,a,a,None,29-03-22,29-03-22,10:56:01,0,0,0,0,0,1sy8ixw7o,108129,3.7.3,n,stapler_LQN.png,旗幟,920,804,516,None,720,1280,24,720,24,4,2,1280,Win32,被子,"['盒裝衛生紙', '羽毛撣子', '羽毛撣子', '蝴蝶', '椅子', '杯子']",96,2022/04/29 02:55:14,2022/04/29 02:57:23,00:09:43,Default,108286,General Multiple,FINISHED,none
Exp,None,2,Mozilla,Netscape,"5.0 (Windows NT 10.0; Win64; x64) AppleWebKit/537.36 (KHTML, like Gecko) Chrome/100.0.4896.127 Safari/537.36",1,0,1,l,l,None,29-03-22,29-03-22,10:56:01,0,0,0,0,0,1sy8ixw7o,108129,3.7.3,n,plasticspoon_Willy.png,花朵,341,804,341,None,720,1280,24,720,24,4,2,1280,Win32,塑膠湯匙,"['盒裝衛生紙', '羽毛撣子', '羽毛撣子', '蝴蝶', '椅子', '杯子']",97,2022/04/29 02:55:14,2022/04/29 02:57:23,00:09:43,Default,108286,General Multiple,FINISHED,none
Exp,None,1,Mozilla,Netscape,"5.0 (Windows NT 10.0; Win64; x64) AppleWebKit/537.36 (KHTML, like Gecko) Chrome/100.0.4896.127 Safari/537.36",1,0,1,l,l,None,29-03-22,29-03-22,10:56:01,0,0,0,0,0,1sy8ixw7o,108129,3.7.3,n,axeyellow_CJJ.png,塑膠湯匙,667,804,667,None,720,1280,24,720,24,4,2,1280,Win32,斧頭,"['盒裝衛生紙', '羽毛撣子', '羽毛撣子', '蝴蝶', '椅子', '杯子']",98,2022/04/29 02:55:14,2022/04/29 02:57:23,00:09:43,Default,108286,General Multiple,FINISHED,none
Exp,None,4,Mozilla,Netscape,"5.0 (Windows NT 10.0; Win64; x64) AppleWebKit/537.36 (KHTML, like Gecko) Chrome/100.0.4896.127 Safari/537.36",1,0,1,a,a,None,29-03-22,29-03-22,10:56:01,0,0,0,0,0,1sy8ixw7o,108129,3.7.3,n,checkbookblue_CJJ.png,花朵,465,804,465,None,720,1280,24,720,24,4,2,1280,Win32,支票簿,"['盒裝衛生紙', '羽毛撣子', '羽毛撣子', '蝴蝶', '椅子', '杯子']",99,2022/04/29 02:55:14,2022/04/29 02:57:23,00:09:43,Default,108286,General Multiple,FINISHED,none
Exp,None,0,Mozilla,Netscape,"5.0 (Windows NT 10.0; Win64; x64) AppleWebKit/537.36 (KHTML, like Gecko) Chrome/100.0.4896.127 Safari/537.36",1,0,1,l,l,None,29-03-22,29-03-22,10:56:01,0,0,0,0,0,1sy8ixw7o,108129,3.7.3,n,stickynote_LTY.png,瓶蓋,437,804,437,None,720,1280,24,720,24,4,2,1280,Win32,瓶蓋,"['盒裝衛生紙', '羽毛撣子', '羽毛撣子', '蝴蝶', '椅子', '杯子']",100,2022/04/29 02:55:14,2022/04/29 02:57:23,00:09:43,Default,108286,General Multiple,FINISHED,none
Exp,None,2,Mozilla,Netscape,"5.0 (Windows NT 10.0; Win64; x64) AppleWebKit/537.36 (KHTML, like Gecko) Chrome/100.0.4896.127 Safari/537.36",1,0,1,l,l,None,29-03-22,29-03-22,10:56:01,0,0,0,0,0,1sy8ixw7o,108129,3.7.3,n,rakebrown_CHN.png,支票簿,408,804,408,None,720,1280,24,720,24,4,2,1280,Win32,耙子,"['盒裝衛生紙', '羽毛撣子', '羽毛撣子', '蝴蝶', '椅子', '杯子']",101,2022/04/29 02:55:14,2022/04/29 02:57:23,00:09:43,Default,108286,General Multiple,FINISHED,none
Exp,None,0,Mozilla,Netscape,"5.0 (Windows NT 10.0; Win64; x64) AppleWebKit/537.36 (KHTML, like Gecko) Chrome/100.0.4896.127 Safari/537.36",1,0,1,l,l,None,29-03-22,29-03-22,10:56:01,0,0,0,0,0,1sy8ixw7o,108129,3.7.3,n,iceskate_Jed.png,鬧鐘,760,804,760,None,720,1280,24,720,24,4,2,1280,Win32,鬧鐘,"['盒裝衛生紙', '羽毛撣子', '羽毛撣子', '蝴蝶', '椅子', '杯子']",102,2022/04/29 02:55:14,2022/04/29 02:57:23,00:09:43,Default,108286,General Multiple,FINISHED,none
Exp,None,0,Mozilla,Netscape,"5.0 (Windows NT 10.0; Win64; x64) AppleWebKit/537.36 (KHTML, like Gecko) Chrome/100.0.4896.127 Safari/537.36",0,0,0,l,l,None,29-03-22,29-03-22,10:56:01,0,0,0,0,0,1sy8ixw7o,108129,3.7.3,n,yogamatgreen_Willy.png,瑜珈墊,396,804,396,None,720,1280,24,720,24,4,2,1280,Win32,瑜珈墊,"['盒裝衛生紙', '羽毛撣子', '羽毛撣子', '蝴蝶', '椅子', '杯子']",103,2022/04/29 02:55:14,2022/04/29 02:57:23,00:09:43,Default,108286,General Multiple,FINISHED,none
Exp,None,5,Mozilla,Netscape,"5.0 (Windows NT 10.0; Win64; x64) AppleWebKit/537.36 (KHTML, like Gecko) Chrome/100.0.4896.127 Safari/537.36",1,0,1,a,a,None,29-03-22,29-03-22,10:56:01,0,0,0,0,0,1sy8ixw7o,108129,3.7.3,n,notepadpink_CJJ.png,支票簿,449,804,449,None,720,1280,24,720,24,4,2,1280,Win32,記事本,"['盒裝衛生紙', '羽毛撣子', '羽毛撣子', '蝴蝶', '椅子', '杯子']",104,2022/04/29 02:55:14,2022/04/29 02:57:23,00:09:43,Default,108286,General Multiple,FINISHED,none
Exp,None,1,Mozilla,Netscape,"5.0 (Windows NT 10.0; Win64; x64) AppleWebKit/537.36 (KHTML, like Gecko) Chrome/100.0.4896.127 Safari/537.36",1,0,1,l,l,None,29-03-22,29-03-22,10:56:01,0,0,0,0,0,1sy8ixw7o,108129,3.7.3,n,spongepurple_CKW.png,記事本,547,804,547,None,720,1280,24,720,24,4,2,1280,Win32,枕頭,"['盒裝衛生紙', '羽毛撣子', '羽毛撣子', '蝴蝶', '椅子', '杯子']",105,2022/04/29 02:55:14,2022/04/29 02:57:23,00:09:43,Default,108286,General Multiple,FINISHED,none
Exp,None,2,Mozilla,Netscape,"5.0 (Windows NT 10.0; Win64; x64) AppleWebKit/537.36 (KHTML, like Gecko) Chrome/100.0.4896.127 Safari/537.36",1,1,1,l,l,None,29-03-22,29-03-22,10:56:01,0,0,0,0,0,1sy8ixw7o,108129,3.7.3,y,hammerpink_CJJ.png,記事本,675,675,406,None,720,1280,24,720,24,4,2,1280,Win32,錘子,"['盒裝衛生紙', '羽毛撣子', '羽毛撣子', '蝴蝶', '椅子', '杯子']",106,2022/04/29 02:55:14,2022/04/29 02:57:23,00:09:43,Default,108286,General Multiple,FINISHED,none
Exp,None,2,Mozilla,Netscape,"5.0 (Windows NT 10.0; Win64; x64) AppleWebKit/537.36 (KHTML, like Gecko) Chrome/100.0.4896.127 Safari/537.36",1,1,1,l,l,None,29-03-22,29-03-22,10:56:01,0,0,0,0,0,1sy8ixw7o,108129,3.7.3,n,tshirt_HKL.png,枕頭,371,675,371,None,720,1280,24,720,24,4,2,1280,Win32,T恤,"['盒裝衛生紙', '羽毛撣子', '羽毛撣子', '蝴蝶', '椅子', '杯子']",107,2022/04/29 02:55:14,2022/04/29 02:57:23,00:09:43,Default,108286,General Multiple,FINISHED,none
Exp,None,5,Mozilla,Netscape,"5.0 (Windows NT 10.0; Win64; x64) AppleWebKit/537.36 (KHTML, like Gecko) Chrome/100.0.4896.127 Safari/537.36",1,1,1,a,a,None,29-03-22,29-03-22,10:56:01,0,0,0,0,0,1sy8ixw7o,108129,3.7.3,n,eraseryellow_CKW.png,瑜珈墊,442,675,442,None,720,1280,24,720,24,4,2,1280,Win32,襪子,"['盒裝衛生紙', '羽毛撣子', '羽毛撣子', '蝴蝶', '椅子', '杯子']",108,2022/04/29 02:55:14,2022/04/29 02:57:23,00:09:43,Default,108286,General Multiple,FINISHED,none
Exp,None,5,Mozilla,Netscape,"5.0 (Windows NT 10.0; Win64; x64) AppleWebKit/537.36 (KHTML, like Gecko) Chrome/100.0.4896.127 Safari/537.36",1,1,1,a,a,None,29-03-22,29-03-22,10:56:01,0,0,0,0,0,1sy8ixw7o,108129,3.7.3,n,legoorange_LTY.png,記事本,354,675,354,None,720,1280,24,720,24,4,2,1280,Win32,花朵,"['盒裝衛生紙', '羽毛撣子', '羽毛撣子', '蝴蝶', '椅子', '杯子']",109,2022/04/29 02:55:14,2022/04/29 02:57:23,00:09:43,Default,108286,General Multiple,FINISHED,none
Exp,None,3,Mozilla,Netscape,"5.0 (Windows NT 10.0; Win64; x64) AppleWebKit/537.36 (KHTML, like Gecko) Chrome/100.0.4896.127 Safari/537.36",1,1,1,a,a,None,29-03-22,29-03-22,10:56:01,0,0,0,0,0,1sy8ixw7o,108129,3.7.3,n,stickgreen_LQN.png,T恤,523,675,523,None,720,1280,24,720,24,4,2,1280,Win32,小提琴,"['盒裝衛生紙', '羽毛撣子', '羽毛撣子', '蝴蝶', '椅子', '杯子']",110,2022/04/29 02:55:14,2022/04/29 02:57:23,00:09:43,Default,108286,General Multiple,FINISHED,none
Exp,None,2,Mozilla,Netscape,"5.0 (Windows NT 10.0; Win64; x64) AppleWebKit/537.36 (KHTML, like Gecko) Chrome/100.0.4896.127 Safari/537.36",1,1,1,l,l,None,29-03-22,29-03-22,10:56:01,0,0,0,0,0,1sy8ixw7o,108129,3.7.3,n,boombox_LTY.png,花朵,343,675,343,None,720,1280,24,720,24,4,2,1280,Win32,沙漏,"['盒裝衛生紙', '羽毛撣子', '羽毛撣子', '蝴蝶', '椅子', '杯子']",111,2022/04/29 02:55:14,2022/04/29 02:57:23,00:09:43,Default,108286,General Multiple,FINISHED,none
Exp,None,5,Mozilla,Netscape,"5.0 (Windows NT 10.0; Win64; x64) AppleWebKit/537.36 (KHTML, like Gecko) Chrome/100.0.4896.127 Safari/537.36",1,1,1,a,a,None,29-03-22,29-03-22,10:56:01,0,0,0,0,0,1sy8ixw7o,108129,3.7.3,n,blowdryerpurple_Jed.png,T恤,532,675,532,None,720,1280,24,720,24,4,2,1280,Win32,腰帶,"['盒裝衛生紙', '羽毛撣子', '羽毛撣子', '蝴蝶', '椅子', '杯子']",112,2022/04/29 02:55:14,2022/04/29 02:57:23,00:09:43,Default,108286,General Multiple,FINISHED,none
Exp,None,5,Mozilla,Netscape,"5.0 (Windows NT 10.0; Win64; x64) AppleWebKit/537.36 (KHTML, like Gecko) Chrome/100.0.4896.127 Safari/537.36",1,1,1,a,a,None,29-03-22,29-03-22,10:56:01,0,0,0,0,0,1sy8ixw7o,108129,3.7.3,n,gun_CKW.png,襪子,459,675,459,None,720,1280,24,720,24,4,2,1280,Win32,剪刀,"['盒裝衛生紙', '羽毛撣子', '羽毛撣子', '蝴蝶', '椅子', '杯子']",113,2022/04/29 02:55:14,2022/04/29 02:57:23,00:09:43,Default,108286,General Multiple,FINISHED,none
Exp,None,3,Mozilla,Netscape,"5.0 (Windows NT 10.0; Win64; x64) AppleWebKit/537.36 (KHTML, like Gecko) Chrome/100.0.4896.127 Safari/537.36",1,1,1,a,a,None,29-03-22,29-03-22,10:56:01,0,0,0,0,0,1sy8ixw7o,108129,3.7.3,n,deodorantyellow_Jed.png,沙漏,385,675,385,None,720,1280,24,720,24,4,2,1280,Win32,手錶,"['盒裝衛生紙', '羽毛撣子', '羽毛撣子', '蝴蝶', '椅子', '杯子']",114,2022/04/29 02:55:14,2022/04/29 02:57:23,00:09:43,Default,108286,General Multiple,FINISHED,none
Exp,None,2,Mozilla,Netscape,"5.0 (Windows NT 10.0; Win64; x64) AppleWebKit/537.36 (KHTML, like Gecko) Chrome/100.0.4896.127 Safari/537.36",1,1,1,l,l,None,29-03-22,29-03-22,10:56:01,0,0,0,0,0,1sy8ixw7o,108129,3.7.3,n,coatbuttonbrown_Willy.png,剪刀,484,675,484,None,720,1280,24,720,24,4,2,1280,Win32,外套鈕扣,"['盒裝衛生紙', '羽毛撣子', '羽毛撣子', '蝴蝶', '椅子', '杯子']",115,2022/04/29 02:55:14,2022/04/29 02:57:23,00:09:43,Default,108286,General Multiple,FINISHED,none
Exp,None,4,Mozilla,Netscape,"5.0 (Windows NT 10.0; Win64; x64) AppleWebKit/537.36 (KHTML, like Gecko) Chrome/100.0.4896.127 Safari/537.36",1,1,1,a,a,None,29-03-22,29-03-22,10:56:01,0,0,0,0,0,1sy8ixw7o,108129,3.7.3,n,baseball_LQN.png,腰帶,398,675,398,None,720,1280,24,720,24,4,2,1280,Win32,洗衣籃,"['盒裝衛生紙', '羽毛撣子', '羽毛撣子', '蝴蝶', '椅子', '杯子']",116,2022/04/29 02:55:14,2022/04/29 02:57:23,00:09:43,Default,108286,General Multiple,FINISHED,none
Exp,None,2,Mozilla,Netscape,"5.0 (Windows NT 10.0; Win64; x64) AppleWebKit/537.36 (KHTML, like Gecko) Chrome/100.0.4896.127 Safari/537.36",0,1,0,l,l,None,29-03-22,29-03-22,10:56:01,0,0,0,0,0,1sy8ixw7o,108129,3.7.3,n,sunglassesred_CJJ.png,外套鈕扣,463,675,463,None,720,1280,24,720,24,4,2,1280,Win32,網球拍,"['盒裝衛生紙', '羽毛撣子', '羽毛撣子', '蝴蝶', '椅子', '杯子']",117,2022/04/29 02:55:14,2022/04/29 02:57:23,00:09:43,Default,108286,General Multiple,FINISHED,none
Exp,None,4,Mozilla,Netscape,"5.0 (Windows NT 10.0; Win64; x64) AppleWebKit/537.36 (KHTML, like Gecko) Chrome/100.0.4896.127 Safari/537.36",0,1,0,a,a,None,29-03-22,29-03-22,10:56:01,0,0,0,0,0,1sy8ixw7o,108129,3.7.3,n,mp3playerbrown_Jed.png,手錶,1481,675,1481,None,720,1280,24,720,24,4,2,1280,Win32,盤子,"['盒裝衛生紙', '羽毛撣子', '羽毛撣子', '蝴蝶', '椅子', '杯子']",118,2022/04/29 02:55:14,2022/04/29 02:57:23,00:09:43,Default,108286,General Multiple,FINISHED,none
Exp,None,2,Mozilla,Netscape,"5.0 (Windows NT 10.0; Win64; x64) AppleWebKit/537.36 (KHTML, like Gecko) Chrome/100.0.4896.127 Safari/537.36",1,1,1,l,l,None,29-03-22,29-03-22,10:56:01,0,0,0,0,0,1sy8ixw7o,108129,3.7.3,n,pumpgreen_CKW.png,網球拍,2164,675,2164,None,720,1280,24,720,24,4,2,1280,Win32,褲子,"['盒裝衛生紙', '羽毛撣子', '羽毛撣子', '蝴蝶', '椅子', '杯子']",119,2022/04/29 02:55:14,2022/04/29 02:57:23,00:09:43,Default,108286,General Multiple,FINISHED,none
Exp,None,5,Mozilla,Netscape,"5.0 (Windows NT 10.0; Win64; x64) AppleWebKit/537.36 (KHTML, like Gecko) Chrome/100.0.4896.127 Safari/537.36",1,1,1,a,a,None,29-03-22,29-03-22,10:56:01,0,0,0,0,0,1sy8ixw7o,108129,3.7.3,n,charger_LTY.png,外套鈕扣,561,675,561,None,720,1280,24,720,24,4,2,1280,Win32,毛巾,"['盒裝衛生紙', '羽毛撣子', '羽毛撣子', '蝴蝶', '椅子', '杯子']",120,2022/04/29 02:55:14,2022/04/29 02:57:23,00:09:43,Default,108286,General Multiple,FINISHED,none
Exp,None,4,Mozilla,Netscape,"5.0 (Windows NT 10.0; Win64; x64) AppleWebKit/537.36 (KHTML, like Gecko) Chrome/100.0.4896.127 Safari/537.36",1,1,1,a,a,None,29-03-22,29-03-22,10:56:01,0,0,0,0,0,1sy8ixw7o,108129,3.7.3,n,paperbagred_CKW.png,網球拍,641,675,641,None,720,1280,24,720,24,4,2,1280,Win32,旗幟,"['盒裝衛生紙', '羽毛撣子', '羽毛撣子', '蝴蝶', '椅子', '杯子']",121,2022/04/29 02:55:14,2022/04/29 02:57:23,00:09:43,Default,108286,General Multiple,FINISHED,none
Exp,None,0,Mozilla,Netscape,"5.0 (Windows NT 10.0; Win64; x64) AppleWebKit/537.36 (KHTML, like Gecko) Chrome/100.0.4896.127 Safari/537.36",1,1,1,l,l,None,29-03-22,29-03-22,10:56:01,0,0,0,0,0,1sy8ixw7o,108129,3.7.3,n,purse_HKL.png,手提包,573,675,573,None,720,1280,24,720,24,4,2,1280,Win32,手提包,"['盒裝衛生紙', '羽毛撣子', '羽毛撣子', '蝴蝶', '椅子', '杯子']",122,2022/04/29 02:55:14,2022/04/29 02:57:23,00:09:43,Default,108286,General Multiple,FINISHED,none
Exp,None,3,Mozilla,Netscape,"5.0 (Windows NT 10.0; Win64; x64) AppleWebKit/537.36 (KHTML, like Gecko) Chrome/100.0.4896.127 Safari/537.36",0,0,1,a,a,None,29-03-22,29-03-22,10:56:01,0,0,0,0,0,1sy8ixw7o,108129,3.7.3,y,sodacangreen_HKL.png,毛巾,893,893,317,None,720,1280,24,720,24,4,2,1280,Win32,汽水罐,"['盒裝衛生紙', '羽毛撣子', '羽毛撣子', '蝴蝶', '椅子', '杯子']",123,2022/04/29 02:55:14,2022/04/29 02:57:23,00:09:43,Default,108286,General Multiple,FINISHED,none
Exp,None,5,Mozilla,Netscape,"5.0 (Windows NT 10.0; Win64; x64) AppleWebKit/537.36 (KHTML, like Gecko) Chrome/100.0.4896.127 Safari/537.36",1,0,1,a,a,None,29-03-22,29-03-22,10:56:01,0,0,0,0,0,1sy8ixw7o,108129,3.7.3,n,airplane_CHN.png,褲子,936,893,936,None,720,1280,24,720,24,4,2,1280,Win32,信用卡,"['盒裝衛生紙', '羽毛撣子', '羽毛撣子', '蝴蝶', '椅子', '杯子']",124,2022/04/29 02:55:14,2022/04/29 02:57:23,00:09:43,Default,108286,General Multiple,FINISHED,none
Exp,None,4,Mozilla,Netscape,"5.0 (Windows NT 10.0; Win64; x64) AppleWebKit/537.36 (KHTML, like Gecko) Chrome/100.0.4896.127 Safari/537.36",1,0,1,a,a,None,29-03-22,29-03-22,10:56:01,0,0,0,0,0,1sy8ixw7o,108129,3.7.3,n,batpink_CHN.png,旗幟,550,893,550,None,720,1280,24,720,24,4,2,1280,Win32,球棒,"['盒裝衛生紙', '羽毛撣子', '羽毛撣子', '蝴蝶', '椅子', '杯子']",125,2022/04/29 02:55:14,2022/04/29 02:57:23,00:09:43,Default,108286,General Multiple,FINISHED,none
Exp,None,5,Mozilla,Netscape,"5.0 (Windows NT 10.0; Win64; x64) AppleWebKit/537.36 (KHTML, like Gecko) Chrome/100.0.4896.127 Safari/537.36",1,0,1,a,a,None,29-03-22,29-03-22,10:56:01,0,0,0,0,0,1sy8ixw7o,108129,3.7.3,n,balloonpurple_HKL.png,旗幟,594,893,594,None,720,1280,24,720,24,4,2,1280,Win32,氣球,"['盒裝衛生紙', '羽毛撣子', '羽毛撣子', '蝴蝶', '椅子', '杯子']",126,2022/04/29 02:55:14,2022/04/29 02:57:23,00:09:43,Default,108286,General Multiple,FINISHED,none
Exp,None,5,Mozilla,Netscape,"5.0 (Windows NT 10.0; Win64; x64) AppleWebKit/537.36 (KHTML, like Gecko) Chrome/100.0.4896.127 Safari/537.36",1,0,1,a,a,None,29-03-22,29-03-22,10:56:01,0,0,0,0,0,1sy8ixw7o,108129,3.7.3,n,airplaneyellow_CHN.png,手提包,895,893,895,None,720,1280,24,720,24,4,2,1280,Win32,信用卡,"['盒裝衛生紙', '羽毛撣子', '羽毛撣子', '蝴蝶', '椅子', '杯子']",127,2022/04/29 02:55:14,2022/04/29 02:57:23,00:09:43,Default,108286,General Multiple,FINISHED,none
Exp,None,4,Mozilla,Netscape,"5.0 (Windows NT 10.0; Win64; x64) AppleWebKit/537.36 (KHTML, like Gecko) Chrome/100.0.4896.127 Safari/537.36",1,0,1,a,a,None,29-03-22,29-03-22,10:56:01,0,0,0,0,0,1sy8ixw7o,108129,3.7.3,n,key_LTY.png,信用卡,1011,893,1011,None,720,1280,24,720,24,4,2,1280,Win32,衣櫃,"['盒裝衛生紙', '羽毛撣子', '羽毛撣子', '蝴蝶', '椅子', '杯子']",128,2022/04/29 02:55:14,2022/04/29 02:57:23,00:09:43,Default,108286,General Multiple,FINISHED,none
Exp,None,4,Mozilla,Netscape,"5.0 (Windows NT 10.0; Win64; x64) AppleWebKit/537.36 (KHTML, like Gecko) Chrome/100.0.4896.127 Safari/537.36",1,0,1,a,a,None,29-03-22,29-03-22,10:56:01,0,0,0,0,0,1sy8ixw7o,108129,3.7.3,n,bow_CHN.png,球棒,609,893,609,None,720,1280,24,720,24,4,2,1280,Win32,鉛筆,"['盒裝衛生紙', '羽毛撣子', '羽毛撣子', '蝴蝶', '椅子', '杯子']",129,2022/04/29 02:55:14,2022/04/29 02:57:23,00:09:43,Default,108286,General Multiple,FINISHED,none
Exp,None,2,Mozilla,Netscape,"5.0 (Windows NT 10.0; Win64; x64) AppleWebKit/537.36 (KHTML, like Gecko) Chrome/100.0.4896.127 Safari/537.36",1,0,1,l,l,None,29-03-22,29-03-22,10:56:01,0,0,0,0,0,1sy8ixw7o,108129,3.7.3,n,axe_CJJ.png,衣櫃,310,893,310,None,720,1280,24,720,24,4,2,1280,Win32,斧頭,"['盒裝衛生紙', '羽毛撣子', '羽毛撣子', '蝴蝶', '椅子', '杯子']",130,2022/04/29 02:55:14,2022/04/29 02:57:23,00:09:43,Default,108286,General Multiple,FINISHED,none
Exp,None,5,Mozilla,Netscape,"5.0 (Windows NT 10.0; Win64; x64) AppleWebKit/537.36 (KHTML, like Gecko) Chrome/100.0.4896.127 Safari/537.36",1,0,1,a,a,None,29-03-22,29-03-22,10:56:01,0,0,0,0,0,1sy8ixw7o,108129,3.7.3,n,buckleyellow_Jed.png,氣球,413,893,413,None,720,1280,24,720,24,4,2,1280,Win32,打火機,"['盒裝衛生紙', '羽毛撣子', '羽毛撣子', '蝴蝶', '椅子', '杯子']",131,2022/04/29 02:55:14,2022/04/29 02:57:23,00:09:43,Default,108286,General Multiple,FINISHED,none
Exp,None,3,Mozilla,Netscape,"5.0 (Windows NT 10.0; Win64; x64) AppleWebKit/537.36 (KHTML, like Gecko) Chrome/100.0.4896.127 Safari/537.36",1,0,1,a,a,None,29-03-22,29-03-22,10:56:01,0,0,0,0,0,1sy8ixw7o,108129,3.7.3,n,rake_CHN.png,鉛筆,336,893,336,None,720,1280,24,720,24,4,2,1280,Win32,耙子,"['盒裝衛生紙', '羽毛撣子', '羽毛撣子', '蝴蝶', '椅子', '杯子']",132,2022/04/29 02:55:14,2022/04/29 02:57:23,00:09:43,Default,108286,General Multiple,FINISHED,none
Exp,None,4,Mozilla,Netscape,"5.0 (Windows NT 10.0; Win64; x64) AppleWebKit/537.36 (KHTML, like Gecko) Chrome/100.0.4896.127 Safari/537.36",0,0,0,a,a,None,29-03-22,29-03-22,10:56:01,0,0,0,0,0,1sy8ixw7o,108129,3.7.3,n,sunglasses_CJJ.png,鉛筆,1107,893,1107,None,720,1280,24,720,24,4,2,1280,Win32,網球拍,"['盒裝衛生紙', '羽毛撣子', '羽毛撣子', '蝴蝶', '椅子', '杯子']",133,2022/04/29 02:55:14,2022/04/29 02:57:23,00:09:43,Default,108286,General Multiple,FINISHED,none
Exp,None,1,Mozilla,Netscape,"5.0 (Windows NT 10.0; Win64; x64) AppleWebKit/537.36 (KHTML, like Gecko) Chrome/100.0.4896.127 Safari/537.36",1,0,1,l,l,None,29-03-22,29-03-22,10:56:01,0,0,0,0,0,1sy8ixw7o,108129,3.7.3,n,pump_CKW.png,網球拍,1103,893,1103,None,720,1280,24,720,24,4,2,1280,Win32,褲子,"['盒裝衛生紙', '羽毛撣子', '羽毛撣子', '蝴蝶', '椅子', '杯子']",134,2022/04/29 02:55:14,2022/04/29 02:57:23,00:09:43,Default,108286,General Multiple,FINISHED,none
Exp,None,0,Mozilla,Netscape,"5.0 (Windows NT 10.0; Win64; x64) AppleWebKit/537.36 (KHTML, like Gecko) Chrome/100.0.4896.127 Safari/537.36",1,0,1,l,l,None,29-03-22,29-03-22,10:56:01,0,0,0,0,0,1sy8ixw7o,108129,3.7.3,n,table_CWL.png,桌子,917,893,917,None,720,1280,24,720,24,4,2,1280,Win32,桌子,"['盒裝衛生紙', '羽毛撣子', '羽毛撣子', '蝴蝶', '椅子', '杯子']",135,2022/04/29 02:55:14,2022/04/29 02:57:23,00:09:43,Default,108286,General Multiple,FINISHED,none
Exp,None,5,Mozilla,Netscape,"5.0 (Windows NT 10.0; Win64; x64) AppleWebKit/537.36 (KHTML, like Gecko) Chrome/100.0.4896.127 Safari/537.36",1,0,1,a,a,None,29-03-22,29-03-22,10:56:01,0,0,0,0,0,1sy8ixw7o,108129,3.7.3,n,stick_LQN.png,打火機,544,893,544,None,720,1280,24,720,24,4,2,1280,Win32,小提琴,"['盒裝衛生紙', '羽毛撣子', '羽毛撣子', '蝴蝶', '椅子', '杯子']",136,2022/04/29 02:55:14,2022/04/29 02:57:23,00:09:43,Default,108286,General Multiple,FINISHED,none
Exp,None,1,Mozilla,Netscape,"5.0 (Windows NT 10.0; Win64; x64) AppleWebKit/537.36 (KHTML, like Gecko) Chrome/100.0.4896.127 Safari/537.36",1,0,1,l,l,None,29-03-22,29-03-22,10:56:01,0,0,0,0,0,1sy8ixw7o,108129,3.7.3,n,mousepad_Willy.png,小提琴,377,893,377,None,720,1280,24,720,24,4,2,1280,Win32,滑鼠墊,"['盒裝衛生紙', '羽毛撣子', '羽毛撣子', '蝴蝶', '椅子', '杯子']",137,2022/04/29 02:55:14,2022/04/29 02:57:23,00:09:43,Default,108286,General Multiple,FINISHED,none
Exp,None,5,Mozilla,Netscape,"5.0 (Windows NT 10.0; Win64; x64) AppleWebKit/537.36 (KHTML, like Gecko) Chrome/100.0.4896.127 Safari/537.36",0,0,1,a,a,None,29-03-22,29-03-22,10:56:01,0,0,0,0,0,1sy8ixw7o,108129,3.7.3,y,bone_CKW.png,網球拍,1109,1109,410,None,720,1280,24,720,24,4,2,1280,Win32,帽子,"['盒裝衛生紙', '羽毛撣子', '羽毛撣子', '蝴蝶', '椅子', '杯子']",138,2022/04/29 02:55:14,2022/04/29 02:57:23,00:09:43,Default,108286,General Multiple,FINISHED,none
Exp,None,0,Mozilla,Netscape,"5.0 (Windows NT 10.0; Win64; x64) AppleWebKit/537.36 (KHTML, like Gecko) Chrome/100.0.4896.127 Safari/537.36",1,0,1,l,l,None,29-03-22,29-03-22,10:56:01,0,0,0,0,0,1sy8ixw7o,108129,3.7.3,n,chairred_HKL.png,椅子,662,1109,662,None,720,1280,24,720,24,4,2,1280,Win32,椅子,"['盒裝衛生紙', '羽毛撣子', '羽毛撣子', '蝴蝶', '椅子', '杯子']",139,2022/04/29 02:55:14,2022/04/29 02:57:23,00:09:43,Default,108286,General Multiple,FINISHED,none
Exp,None,1,Mozilla,Netscape,"5.0 (Windows NT 10.0; Win64; x64) AppleWebKit/537.36 (KHTML, like Gecko) Chrome/100.0.4896.127 Safari/537.36",1,0,1,l,l,None,29-03-22,29-03-22,10:56:01,0,0,0,0,0,1sy8ixw7o,108129,3.7.3,n,chestblue_CHN.png,椅子,341,1109,341,None,720,1280,24,720,24,4,2,1280,Win32,寶箱,"['盒裝衛生紙', '羽毛撣子', '羽毛撣子', '蝴蝶', '椅子', '杯子']",140,2022/04/29 02:55:14,2022/04/29 02:57:23,00:09:43,Default,108286,General Multiple,FINISHED,none
Exp,None,4,Mozilla,Netscape,"5.0 (Windows NT 10.0; Win64; x64) AppleWebKit/537.36 (KHTML, like Gecko) Chrome/100.0.4896.127 Safari/537.36",1,0,1,a,a,None,29-03-22,29-03-22,10:56:01,0,0,0,0,0,1sy8ixw7o,108129,3.7.3,n,checkbook_CJJ.png,滑鼠墊,382,1109,382,None,720,1280,24,720,24,4,2,1280,Win32,支票簿,"['盒裝衛生紙', '羽毛撣子', '羽毛撣子', '蝴蝶', '椅子', '杯子']",141,2022/04/29 02:55:14,2022/04/29 02:57:23,00:09:43,Default,108286,General Multiple,FINISHED,none
Exp,None,1,Mozilla,Netscape,"5.0 (Windows NT 10.0; Win64; x64) AppleWebKit/537.36 (KHTML, like Gecko) Chrome/100.0.4896.127 Safari/537.36",1,0,1,l,l,None,29-03-22,29-03-22,10:56:01,0,0,0,0,0,1sy8ixw7o,108129,3.7.3,n,knife_HKL.png,支票簿,471,1109,471,None,720,1280,24,720,24,4,2,1280,Win32,刀子,"['盒裝衛生紙', '羽毛撣子', '羽毛撣子', '蝴蝶', '椅子', '杯子']",142,2022/04/29 02:55:14,2022/04/29 02:57:23,00:09:43,Default,108286,General Multiple,FINISHED,none
Exp,None,3,Mozilla,Netscape,"5.0 (Windows NT 10.0; Win64; x64) AppleWebKit/537.36 (KHTML, like Gecko) Chrome/100.0.4896.127 Safari/537.36",1,0,1,a,a,None,29-03-22,29-03-22,10:56:01,0,0,0,0,0,1sy8ixw7o,108129,3.7.3,n,wrench_HKL.png,寶箱,442,1109,442,None,720,1280,24,720,24,4,2,1280,Win32,板手,"['盒裝衛生紙', '羽毛撣子', '羽毛撣子', '蝴蝶', '椅子', '杯子']",143,2022/04/29 02:55:14,2022/04/29 02:57:23,00:09:43,Default,108286,General Multiple,FINISHED,none
Exp,None,5,Mozilla,Netscape,"5.0 (Windows NT 10.0; Win64; x64) AppleWebKit/537.36 (KHTML, like Gecko) Chrome/100.0.4896.127 Safari/537.36",1,0,1,a,a,None,29-03-22,29-03-22,10:56:01,0,0,0,0,0,1sy8ixw7o,108129,3.7.3,n,boat_LTY.png,椅子,709,1109,381,None,720,1280,24,720,24,4,2,1280,Win32,蝴蝶,"['盒裝衛生紙', '羽毛撣子', '羽毛撣子', '蝴蝶', '椅子', '杯子']",144,2022/04/29 02:55:14,2022/04/29 02:57:23,00:09:43,Default,108286,General Multiple,FINISHED,none
Exp,None,3,Mozilla,Netscape,"5.0 (Windows NT 10.0; Win64; x64) AppleWebKit/537.36 (KHTML, like Gecko) Chrome/100.0.4896.127 Safari/537.36",1,0,1,a,a,None,29-03-22,29-03-22,10:56:01,0,0,0,0,0,1sy8ixw7o,108129,3.7.3,n,lotion_CKW.png,刀子,521,1109,521,None,720,1280,24,720,24,4,2,1280,Win32,錢包,"['盒裝衛生紙', '羽毛撣子', '羽毛撣子', '蝴蝶', '椅子', '杯子']",145,2022/04/29 02:55:14,2022/04/29 02:57:23,00:09:43,Default,108286,General Multiple,FINISHED,none
Exp,None,1,Mozilla,Netscape,"5.0 (Windows NT 10.0; Win64; x64) AppleWebKit/537.36 (KHTML, like Gecko) Chrome/100.0.4896.127 Safari/537.36",1,0,1,l,l,None,29-03-22,29-03-22,10:56:01,0,0,0,0,0,1sy8ixw7o,108129,3.7.3,n,bicycle_CWL.png,錢包,445,1109,445,None,720,1280,24,720,24,4,2,1280,Win32,腳踏車,"['盒裝衛生紙', '羽毛撣子', '羽毛撣子', '蝴蝶', '椅子', '杯子']",146,2022/04/29 02:55:14,2022/04/29 02:57:23,00:09:43,Default,108286,General Multiple,FINISHED,none
Exp,None,5,Mozilla,Netscape,"5.0 (Windows NT 10.0; Win64; x64) AppleWebKit/537.36 (KHTML, like Gecko) Chrome/100.0.4896.127 Safari/537.36",1,0,1,a,a,None,29-03-22,29-03-22,10:56:01,0,0,0,0,0,1sy8ixw7o,108129,3.7.3,n,sawyello_Willy.png,刀子,402,1109,402,None,720,1280,24,720,24,4,2,1280,Win32,電鋸,"['盒裝衛生紙', '羽毛撣子', '羽毛撣子', '蝴蝶', '椅子', '杯子']",147,2022/04/29 02:55:14,2022/04/29 02:57:23,00:09:43,Default,108286,General Multiple,FINISHED,none
Exp,None,4,Mozilla,Netscape,"5.0 (Windows NT 10.0; Win64; x64) AppleWebKit/537.36 (KHTML, like Gecko) Chrome/100.0.4896.127 Safari/537.36",1,0,1,a,a,None,29-03-22,29-03-22,10:56:01,0,0,0,0,0,1sy8ixw7o,108129,3.7.3,n,plasticspoonorange_Willy.png,蝴蝶,334,1109,334,None,720,1280,24,720,24,4,2,1280,Win32,塑膠湯匙,"['盒裝衛生紙', '羽毛撣子', '羽毛撣子', '蝴蝶', '椅子', '杯子']",148,2022/04/29 02:55:14,2022/04/29 02:57:23,00:09:43,Default,108286,General Multiple,FINISHED,none
Exp,None,0,Mozilla,Netscape,"5.0 (Windows NT 10.0; Win64; x64) AppleWebKit/537.36 (KHTML, like Gecko) Chrome/100.0.4896.127 Safari/537.36",1,0,1,l,l,None,29-03-22,29-03-22,10:56:01,0,0,0,0,0,1sy8ixw7o,108129,3.7.3,n,buckle_Jed.png,打火機,392,1109,392,None,720,1280,24,720,24,4,2,1280,Win32,打火機,"['盒裝衛生紙', '羽毛撣子', '羽毛撣子', '蝴蝶', '椅子', '杯子']",149,2022/04/29 02:55:14,2022/04/29 02:57:23,00:09:43,Default,108286,General Multiple,FINISHED,none
Exp,None,2,Mozilla,Netscape,"5.0 (Windows NT 10.0; Win64; x64) AppleWebKit/537.36 (KHTML, like Gecko) Chrome/100.0.4896.127 Safari/537.36",1,0,1,l,l,None,29-03-22,29-03-22,10:56:01,0,0,0,0,0,1sy8ixw7o,108129,3.7.3,n,spring_LQN.png,塑膠湯匙,399,1109,399,None,720,1280,24,720,24,4,2,1280,Win32,吉他,"['盒裝衛生紙', '羽毛撣子', '羽毛撣子', '蝴蝶', '椅子', '杯子']",150,2022/04/29 02:55:14,2022/04/29 02:57:23,00:09:43,Default,108286,General Multiple,FINISHED,none
Exp,None,5,Mozilla,Netscape,"5.0 (Windows NT 10.0; Win64; x64) AppleWebKit/537.36 (KHTML, like Gecko) Chrome/100.0.4896.127 Safari/537.36",1,0,1,a,a,None,29-03-22,29-03-22,10:56:01,0,0,0,0,0,1sy8ixw7o,108129,3.7.3,n,helmet_HKL.png,腳踏車,357,1109,357,None,720,1280,24,720,24,4,2,1280,Win32,安全帽,"['盒裝衛生紙', '羽毛撣子', '羽毛撣子', '蝴蝶', '椅子', '杯子']",151,2022/04/29 02:55:14,2022/04/29 02:57:23,00:09:43,Default,108286,General Multiple,FINISHED,none
Exp,None,3,Mozilla,Netscape,"5.0 (Windows NT 10.0; Win64; x64) AppleWebKit/537.36 (KHTML, like Gecko) Chrome/100.0.4896.127 Safari/537.36",1,0,1,a,a,None,29-03-22,29-03-22,10:56:01,0,0,0,0,0,1sy8ixw7o,108129,3.7.3,n,baseballyellow_LQN.png,打火機,400,1109,400,None,720,1280,24,720,24,4,2,1280,Win32,洗衣籃,"['盒裝衛生紙', '羽毛撣子', '羽毛撣子', '蝴蝶', '椅子', '杯子']",152,2022/04/29 02:55:14,2022/04/29 02:57:23,00:09:43,Default,108286,General Multiple,FINISHED,none
Exp,None,1,Mozilla,Netscape,"5.0 (Windows NT 10.0; Win64; x64) AppleWebKit/537.36 (KHTML, like Gecko) Chrome/100.0.4896.127 Safari/537.36",1,0,1,l,l,None,29-03-22,29-03-22,10:56:01,0,0,0,0,0,1sy8ixw7o,108129,3.7.3,n,leggingspurple_Willy.png,洗衣籃,343,1109,343,None,720,1280,24,720,24,4,2,1280,Win32,緊身褲,"['盒裝衛生紙', '羽毛撣子', '羽毛撣子', '蝴蝶', '椅子', '杯子']",153,2022/04/29 02:55:14,2022/04/29 02:57:23,00:09:43,Default,108286,General Multiple,FINISHED,none
Exp,None,4,Mozilla,Netscape,"5.0 (Windows NT 10.0; Win64; x64) AppleWebKit/537.36 (KHTML, like Gecko) Chrome/100.0.4896.127 Safari/537.36",0,0,1,a,a,None,29-03-22,29-03-22,10:56:01,0,0,0,0,0,1sy8ixw7o,108129,3.7.3,y,volleyball_LTY.png,吉他,1101,1101,475,None,720,1280,24,720,24,4,2,1280,Win32,郵票,"['盒裝衛生紙', '羽毛撣子', '羽毛撣子', '蝴蝶', '椅子', '杯子']",154,2022/04/29 02:55:14,2022/04/29 02:57:23,00:09:43,Default,108286,General Multiple,FINISHED,none
Exp,None,4,Mozilla,Netscape,"5.0 (Windows NT 10.0; Win64; x64) AppleWebKit/537.36 (KHTML, like Gecko) Chrome/100.0.4896.127 Safari/537.36",1,0,1,a,a,None,29-03-22,29-03-22,10:56:01,0,0,0,0,0,1sy8ixw7o,108129,3.7.3,n,bowpink_CHN.png,安全帽,528,1101,528,None,720,1280,24,720,24,4,2,1280,Win32,鉛筆,"['盒裝衛生紙', '羽毛撣子', '羽毛撣子', '蝴蝶', '椅子', '杯子']",155,2022/04/29 02:55:14,2022/04/29 02:57:23,00:09:43,Default,108286,General Multiple,FINISHED,none
Exp,None,5,Mozilla,Netscape,"5.0 (Windows NT 10.0; Win64; x64) AppleWebKit/537.36 (KHTML, like Gecko) Chrome/100.0.4896.127 Safari/537.36",1,0,1,a,a,None,29-03-22,29-03-22,10:56:01,0,0,0,0,0,1sy8ixw7o,108129,3.7.3,n,airfreshener_CJJ.png,安全帽,606,1101,606,None,720,1280,24,720,24,4,2,1280,Win32,空氣清新劑,"['盒裝衛生紙', '羽毛撣子', '羽毛撣子', '蝴蝶', '椅子', '杯子']",156,2022/04/29 02:55:14,2022/04/29 02:57:23,00:09:43,Default,108286,General Multiple,FINISHED,none
Exp,None,3,Mozilla,Netscape,"5.0 (Windows NT 10.0; Win64; x64) AppleWebKit/537.36 (KHTML, like Gecko) Chrome/100.0.4896.127 Safari/537.36",1,0,1,a,a,None,29-03-22,29-03-22,10:56:01,0,0,0,0,0,1sy8ixw7o,108129,3.7.3,n,camera_Jed.png,郵票,515,1101,515,None,720,1280,24,720,24,4,2,1280,Win32,鏟子,"['盒裝衛生紙', '羽毛撣子', '羽毛撣子', '蝴蝶', '椅子', '杯子']",157,2022/04/29 02:55:14,2022/04/29 02:57:23,00:09:43,Default,108286,General Multiple,FINISHED,none
Exp,None,3,Mozilla,Netscape,"5.0 (Windows NT 10.0; Win64; x64) AppleWebKit/537.36 (KHTML, like Gecko) Chrome/100.0.4896.127 Safari/537.36",1,0,1,a,a,None,29-03-22,29-03-22,10:56:01,0,0,0,0,0,1sy8ixw7o,108129,3.7.3,n,motorcycleblue_LQN.png,鉛筆,407,1101,407,None,720,1280,24,720,24,4,2,1280,Win32,巴士,"['盒裝衛生紙', '羽毛撣子', '羽毛撣子', '蝴蝶', '椅子', '杯子']",158,2022/04/29 02:55:14,2022/04/29 02:57:23,00:09:43,Default,108286,General Multiple,FINISHED,none
Exp,None,1,Mozilla,Netscape,"5.0 (Windows NT 10.0; Win64; x64) AppleWebKit/537.36 (KHTML, like Gecko) Chrome/100.0.4896.127 Safari/537.36",1,0,1,l,l,None,29-03-22,29-03-22,10:56:01,0,0,0,0,0,1sy8ixw7o,108129,3.7.3,n,boomboxred_LTY.png,巴士,330,1101,330,None,720,1280,24,720,24,4,2,1280,Win32,沙漏,"['盒裝衛生紙', '羽毛撣子', '羽毛撣子', '蝴蝶', '椅子', '杯子']",159,2022/04/29 02:55:14,2022/04/29 02:57:23,00:09:43,Default,108286,General Multiple,FINISHED,none
Exp,None,4,Mozilla,Netscape,"5.0 (Windows NT 10.0; Win64; x64) AppleWebKit/537.36 (KHTML, like Gecko) Chrome/100.0.4896.127 Safari/537.36",1,0,1,a,a,None,29-03-22,29-03-22,10:56:01,0,0,0,0,0,1sy8ixw7o,108129,3.7.3,n,shortsyellow_CJJ.png,空氣清新劑,353,1101,353,None,720,1280,24,720,24,4,2,1280,Win32,短褲,"['盒裝衛生紙', '羽毛撣子', '羽毛撣子', '蝴蝶', '椅子', '杯子']",160,2022/04/29 02:55:14,2022/04/29 02:57:23,00:09:43,Default,108286,General Multiple,FINISHED,none
Exp,None,4,Mozilla,Netscape,"5.0 (Windows NT 10.0; Win64; x64) AppleWebKit/537.36 (KHTML, like Gecko) Chrome/100.0.4896.127 Safari/537.36",1,0,1,a,a,None,29-03-22,29-03-22,10:56:01,0,0,0,0,0,1sy8ixw7o,108129,3.7.3,n,duckblue_CHN.png,鏟子,513,1101,513,None,720,1280,24,720,24,4,2,1280,Win32,夾克,"['盒裝衛生紙', '羽毛撣子', '羽毛撣子', '蝴蝶', '椅子', '杯子']",161,2022/04/29 02:55:14,2022/04/29 02:57:23,00:09:43,Default,108286,General Multiple,FINISHED,none
Exp,None,3,Mozilla,Netscape,"5.0 (Windows NT 10.0; Win64; x64) AppleWebKit/537.36 (KHTML, like Gecko) Chrome/100.0.4896.127 Safari/537.36",1,0,1,a,a,None,29-03-22,29-03-22,10:56:01,0,0,0,0,0,1sy8ixw7o,108129,3.7.3,n,magnet_LQN.png,沙漏,399,1101,399,None,720,1280,24,720,24,4,2,1280,Win32,瓶子,"['盒裝衛生紙', '羽毛撣子', '羽毛撣子', '蝴蝶', '椅子', '杯子']",162,2022/04/29 02:55:14,2022/04/29 02:57:23,00:09:43,Default,108286,General Multiple,FINISHED,none
Exp,None,2,Mozilla,Netscape,"5.0 (Windows NT 10.0; Win64; x64) AppleWebKit/537.36 (KHTML, like Gecko) Chrome/100.0.4896.127 Safari/537.36",1,0,1,l,l,None,29-03-22,29-03-22,10:56:01,0,0,0,0,0,1sy8ixw7o,108129,3.7.3,n,stickgreen_LQN.png,夾克,317,1101,317,None,720,1280,24,720,24,4,2,1280,Win32,小提琴,"['盒裝衛生紙', '羽毛撣子', '羽毛撣子', '蝴蝶', '椅子', '杯子']",163,2022/04/29 02:55:14,2022/04/29 02:57:23,00:09:43,Default,108286,General Multiple,FINISHED,none
Exp,None,4,Mozilla,Netscape,"5.0 (Windows NT 10.0; Win64; x64) AppleWebKit/537.36 (KHTML, like Gecko) Chrome/100.0.4896.127 Safari/537.36",1,0,1,a,a,None,29-03-22,29-03-22,10:56:01,0,0,0,0,0,1sy8ixw7o,108129,3.7.3,n,wrenchgreen_HKL.png,短褲,370,1101,370,None,720,1280,24,720,24,4,2,1280,Win32,板手,"['盒裝衛生紙', '羽毛撣子', '羽毛撣子', '蝴蝶', '椅子', '杯子']",164,2022/04/29 02:55:14,2022/04/29 02:57:23,00:09:43,Default,108286,General Multiple,FINISHED,none
Exp,None,2,Mozilla,Netscape,"5.0 (Windows NT 10.0; Win64; x64) AppleWebKit/537.36 (KHTML, like Gecko) Chrome/100.0.4896.127 Safari/537.36",1,0,1,l,l,None,29-03-22,29-03-22,10:56:01,0,0,0,0,0,1sy8ixw7o,108129,3.7.3,n,sofa_HKL.png,小提琴,543,1101,543,None,720,1280,24,720,24,4,2,1280,Win32,沙發,"['盒裝衛生紙', '羽毛撣子', '羽毛撣子', '蝴蝶', '椅子', '杯子']",165,2022/04/29 02:55:14,2022/04/29 02:57:23,00:09:43,Default,108286,General Multiple,FINISHED,none
Exp,None,0,Mozilla,Netscape,"5.0 (Windows NT 10.0; Win64; x64) AppleWebKit/537.36 (KHTML, like Gecko) Chrome/100.0.4896.127 Safari/537.36",1,0,1,l,l,None,29-03-22,29-03-22,10:56:01,0,0,0,0,0,1sy8ixw7o,108129,3.7.3,n,stickynoteblue_LTY.png,瓶蓋,381,1101,381,None,720,1280,24,720,24,4,2,1280,Win32,瓶蓋,"['盒裝衛生紙', '羽毛撣子', '羽毛撣子', '蝴蝶', '椅子', '杯子']",166,2022/04/29 02:55:14,2022/04/29 02:57:23,00:09:43,Default,108286,General Multiple,FINISHED,none
Exp,None,4,Mozilla,Netscape,"5.0 (Windows NT 10.0; Win64; x64) AppleWebKit/537.36 (KHTML, like Gecko) Chrome/100.0.4896.127 Safari/537.36",1,0,1,a,a,None,29-03-22,29-03-22,10:56:01,0,0,0,0,0,1sy8ixw7o,108129,3.7.3,n,blowdryer_Jed.png,小提琴,339,1101,339,None,720,1280,24,720,24,4,2,1280,Win32,腰帶,"['盒裝衛生紙', '羽毛撣子', '羽毛撣子', '蝴蝶', '椅子', '杯子']",167,2022/04/29 02:55:14,2022/04/29 02:57:23,00:09:43,Default,108286,General Multiple,FINISHED,none
Exp,None,5,Mozilla,Netscape,"5.0 (Windows NT 10.0; Win64; x64) AppleWebKit/537.36 (KHTML, like Gecko) Chrome/100.0.4896.127 Safari/537.36",0,0,0,a,a,None,29-03-22,29-03-22,10:56:01,0,0,0,0,0,1sy8ixw7o,108129,3.7.3,n,balloon_HKL.png,小提琴,406,1101,406,None,720,1280,24,720,24,4,2,1280,Win32,氣球,"['盒裝衛生紙', '羽毛撣子', '羽毛撣子', '蝴蝶', '椅子', '杯子']",168,2022/04/29 02:55:14,2022/04/29 02:57:23,00:09:43,Default,108286,General Multiple,FINISHED,none
Exp,None,1,Mozilla,Netscape,"5.0 (Windows NT 10.0; Win64; x64) AppleWebKit/537.36 (KHTML, like Gecko) Chrome/100.0.4896.127 Safari/537.36",1,0,1,l,l,None,29-03-22,29-03-22,10:56:01,0,0,0,0,0,1sy8ixw7o,108129,3.7.3,n,umbrellared_Willy.png,氣球,364,1101,364,None,720,1280,24,720,24,4,2,1280,Win32,雨傘,"['盒裝衛生紙', '羽毛撣子', '羽毛撣子', '蝴蝶', '椅子', '杯子']",169,2022/04/29 02:55:14,2022/04/29 02:57:23,00:09:43,Default,108286,General Multiple,FINISHED,none
Exp,None,3,Mozilla,Netscape,"5.0 (Windows NT 10.0; Win64; x64) AppleWebKit/537.36 (KHTML, like Gecko) Chrome/100.0.4896.127 Safari/537.36",1,0,1,a,a,None,29-03-22,29-03-22,10:56:01,0,0,0,0,0,1sy8ixw7o,108129,3.7.3,n,bicyclered_CWL.png,腰帶,419,1101,419,None,720,1280,24,720,24,4,2,1280,Win32,腳踏車,"['盒裝衛生紙', '羽毛撣子', '羽毛撣子', '蝴蝶', '椅子', '杯子']",170,2022/04/29 02:55:14,2022/04/29 02:57:23,00:09:43,Default,108286,General Multiple,FINISHED,none
Exp,None,4,Mozilla,Netscape,"5.0 (Windows NT 10.0; Win64; x64) AppleWebKit/537.36 (KHTML, like Gecko) Chrome/100.0.4896.127 Safari/537.36",1,0,1,a,a,None,29-03-22,29-03-22,10:56:01,0,0,0,0,0,1sy8ixw7o,108129,3.7.3,y,fishgreen_Willy.png,腰帶,265,1101,265,None,720,1280,24,720,24,4,2,1280,Win32,魚,"['盒裝衛生紙', '羽毛撣子', '羽毛撣子', '蝴蝶', '椅子', '杯子']",171,2022/04/29 02:55:14,2022/04/29 02:57:23,00:09:43,Default,108286,General Multiple,FINISHED,none
Exp,None,4,Mozilla,Netscape,"5.0 (Windows NT 10.0; Win64; x64) AppleWebKit/537.36 (KHTML, like Gecko) Chrome/100.0.4896.127 Safari/537.36",1,0,1,a,a,None,29-03-22,29-03-22,10:56:01,0,0,0,0,0,1sy8ixw7o,108129,3.7.3,n,chalkpurple_LQN.png,氣球,438,1101,438,None,720,1280,24,720,24,4,2,1280,Win32,卡車,"['盒裝衛生紙', '羽毛撣子', '羽毛撣子', '蝴蝶', '椅子', '杯子']",172,2022/04/29 02:55:14,2022/04/29 02:57:23,00:09:43,Default,108286,General Multiple,FINISHED,none
Exp,None,2,Mozilla,Netscape,"5.0 (Windows NT 10.0; Win64; x64) AppleWebKit/537.36 (KHTML, like Gecko) Chrome/100.0.4896.127 Safari/537.36",1,0,1,l,l,None,29-03-22,29-03-22,10:56:01,0,0,0,0,0,1sy8ixw7o,108129,3.7.3,n,bowlpurple_CWL.png,魚,309,1101,309,None,720,1280,24,720,24,4,2,1280,Win32,碗,"['盒裝衛生紙', '羽毛撣子', '羽毛撣子', '蝴蝶', '椅子', '杯子']",173,2022/04/29 02:55:14,2022/04/29 02:57:23,00:09:43,Default,108286,General Multiple,FINISHED,none
Exp,None,0,Mozilla,Netscape,"5.0 (Windows NT 10.0; Win64; x64) AppleWebKit/537.36 (KHTML, like Gecko) Chrome/100.0.4896.127 Safari/537.36",1,0,1,l,l,None,29-03-22,29-03-22,10:56:01,0,0,0,0,0,1sy8ixw7o,108129,3.7.3,n,hockeystick_Jed.png,花瓶,333,1101,333,None,720,1280,24,720,24,4,2,1280,Win32,花瓶,"['盒裝衛生紙', '羽毛撣子', '羽毛撣子', '蝴蝶', '椅子', '杯子']",174,2022/04/29 02:55:14,2022/04/29 02:57:23,00:09:43,Default,108286,General Multiple,FINISHED,none
Exp,None,4,Mozilla,Netscape,"5.0 (Windows NT 10.0; Win64; x64) AppleWebKit/537.36 (KHTML, like Gecko) Chrome/100.0.4896.127 Safari/537.36",1,0,1,a,a,None,29-03-22,29-03-22,10:56:01,0,0,0,0,0,1sy8ixw7o,108129,3.7.3,n,slippers_Willy.png,魚,340,1101,340,None,720,1280,24,720,24,4,2,1280,Win32,拖鞋,"['盒裝衛生紙', '羽毛撣子', '羽毛撣子', '蝴蝶', '椅子', '杯子']",175,2022/04/29 02:55:14,2022/04/29 02:57:23,00:09:43,Default,108286,General Multiple,FINISHED,none
Exp,None,5,Mozilla,Netscape,"5.0 (Windows NT 10.0; Win64; x64) AppleWebKit/537.36 (KHTML, like Gecko) Chrome/100.0.4896.127 Safari/537.36",1,0,1,a,a,None,29-03-22,29-03-22,10:56:01,0,0,0,0,0,1sy8ixw7o,108129,3.7.3,n,book_CWL.png,魚,400,1101,400,None,720,1280,24,720,24,4,2,1280,Win32,精裝書,"['盒裝衛生紙', '羽毛撣子', '羽毛撣子', '蝴蝶', '椅子', '杯子']",176,2022/04/29 02:55:14,2022/04/29 02:57:23,00:09:43,Default,108286,General Multiple,FINISHED,none
Exp,None,2,Mozilla,Netscape,"5.0 (Windows NT 10.0; Win64; x64) AppleWebKit/537.36 (KHTML, like Gecko) Chrome/100.0.4896.127 Safari/537.36",1,0,1,l,l,None,29-03-22,29-03-22,10:56:01,0,0,0,0,0,1sy8ixw7o,108129,3.7.3,n,tennisracketgreen_CWL.png,拖鞋,441,1101,441,None,720,1280,24,720,24,4,2,1280,Win32,網球拍,"['盒裝衛生紙', '羽毛撣子', '羽毛撣子', '蝴蝶', '椅子', '杯子']",177,2022/04/29 02:55:14,2022/04/29 02:57:23,00:09:43,Default,108286,General Multiple,FINISHED,none
Exp,None,4,Mozilla,Netscape,"5.0 (Windows NT 10.0; Win64; x64) AppleWebKit/537.36 (KHTML, like Gecko) Chrome/100.0.4896.127 Safari/537.36",1,0,1,a,a,None,29-03-22,29-03-22,10:56:01,0,0,0,0,0,1sy8ixw7o,108129,3.7.3,n,extension_CHN.png,花瓶,1207,1101,1207,None,720,1280,24,720,24,4,2,1280,Win32,車子,"['盒裝衛生紙', '羽毛撣子', '羽毛撣子', '蝴蝶', '椅子', '杯子']",178,2022/04/29 02:55:14,2022/04/29 02:57:23,00:09:43,Default,108286,General Multiple,FINISHED,none
Exp,None,2,Mozilla,Netscape,"5.0 (Windows NT 10.0; Win64; x64) AppleWebKit/537.36 (KHTML, like Gecko) Chrome/100.0.4896.127 Safari/537.36",1,0,1,l,l,None,29-03-22,29-03-22,10:56:01,0,0,0,0,0,1sy8ixw7o,108129,3.7.3,n,camerapink_Jed.png,網球拍,1446,1101,1446,None,720,1280,24,720,24,4,2,1280,Win32,鏟子,"['盒裝衛生紙', '羽毛撣子', '羽毛撣子', '蝴蝶', '椅子', '杯子']",179,2022/04/29 02:55:14,2022/04/29 02:57:23,00:09:43,Default,108286,General Multiple,FINISHED,none
Exp,None,0,Mozilla,Netscape,"5.0 (Windows NT 10.0; Win64; x64) AppleWebKit/537.36 (KHTML, like Gecko) Chrome/100.0.4896.127 Safari/537.36",1,0,1,l,l,None,29-03-22,29-03-22,10:56:01,0,0,0,0,0,1sy8ixw7o,108129,3.7.3,n,toothpaste_CKW.png,衣架,1131,1101,1131,None,720,1280,24,720,24,4,2,1280,Win32,衣架,"['盒裝衛生紙', '羽毛撣子', '羽毛撣子', '蝴蝶', '椅子', '杯子']",180,2022/04/29 02:55:14,2022/04/29 02:57:23,00:09:43,Default,108286,General Multiple,FINISHED,none
Exp,None,5,Mozilla,Netscape,"5.0 (Windows NT 10.0; Win64; x64) AppleWebKit/537.36 (KHTML, like Gecko) Chrome/100.0.4896.127 Safari/537.36",1,0,1,a,a,None,29-03-22,29-03-22,10:56:01,0,0,0,0,0,1sy8ixw7o,108129,3.7.3,n,lipstickbrown_CJJ.png,精裝書,401,1101,401,None,720,1280,24,720,24,4,2,1280,Win32,口紅,"['盒裝衛生紙', '羽毛撣子', '羽毛撣子', '蝴蝶', '椅子', '杯子']",181,2022/04/29 02:55:14,2022/04/29 02:57:23,00:09:43,Default,108286,General Multiple,FINISHED,none
Exp,None,3,Mozilla,Netscape,"5.0 (Windows NT 10.0; Win64; x64) AppleWebKit/537.36 (KHTML, like Gecko) Chrome/100.0.4896.127 Safari/537.36",1,0,1,a,a,None,29-03-22,29-03-22,10:56:01,0,0,0,0,0,1sy8ixw7o,108129,3.7.3,n,hockeystickgreen_Jed.png,鏟子,390,1101,390,None,720,1280,24,720,24,4,2,1280,Win32,花瓶,"['盒裝衛生紙', '羽毛撣子', '羽毛撣子', '蝴蝶', '椅子', '杯子']",182,2022/04/29 02:55:14,2022/04/29 02:57:23,00:09:43,Default,108286,General Multiple,FINISHED,none
Exp,None,2,Mozilla,Netscape,"5.0 (Windows NT 10.0; Win64; x64) AppleWebKit/537.36 (KHTML, like Gecko) Chrome/100.0.4896.127 Safari/537.36",1,0,1,l,l,None,29-03-22,29-03-22,10:56:01,0,0,0,0,0,1sy8ixw7o,108129,3.7.3,n,leggings_Willy.png,口紅,324,1101,324,None,720,1280,24,720,24,4,2,1280,Win32,緊身褲,"['盒裝衛生紙', '羽毛撣子', '羽毛撣子', '蝴蝶', '椅子', '杯子']",183,2022/04/29 02:55:14,2022/04/29 02:57:23,00:09:43,Default,108286,General Multiple,FINISHED,none
Exp,None,2,Mozilla,Netscape,"5.0 (Windows NT 10.0; Win64; x64) AppleWebKit/537.36 (KHTML, like Gecko) Chrome/100.0.4896.127 Safari/537.36",1,0,1,l,l,None,29-03-22,29-03-22,10:56:01,0,0,0,0,0,1sy8ixw7o,108129,3.7.3,n,keyblue_LTY.png,花瓶,333,1101,333,None,720,1280,24,720,24,4,2,1280,Win32,衣櫃,"['盒裝衛生紙', '羽毛撣子', '羽毛撣子', '蝴蝶', '椅子', '杯子']",184,2022/04/29 02:55:14,2022/04/29 02:57:23,00:09:43,Default,108286,General Multiple,FINISHED,none
Exp,None,4,Mozilla,Netscape,"5.0 (Windows NT 10.0; Win64; x64) AppleWebKit/537.36 (KHTML, like Gecko) Chrome/100.0.4896.127 Safari/537.36",1,0,1,a,a,None,29-03-22,29-03-22,10:56:01,0,0,0,0,0,1sy8ixw7o,108129,3.7.3,n,phone_Jed.png,口紅,346,1101,346,None,720,1280,24,720,24,4,2,1280,Win32,手鐲,"['盒裝衛生紙', '羽毛撣子', '羽毛撣子', '蝴蝶', '椅子', '杯子']",185,2022/04/29 02:55:14,2022/04/29 02:57:23,00:09:43,Default,108286,General Multiple,FINISHED,none
Exp,None,3,Mozilla,Netscape,"5.0 (Windows NT 10.0; Win64; x64) AppleWebKit/537.36 (KHTML, like Gecko) Chrome/100.0.4896.127 Safari/537.36",1,0,1,a,a,None,29-03-22,29-03-22,10:56:01,0,0,0,0,0,1sy8ixw7o,108129,3.7.3,n,blousegreen_CJJ.png,緊身褲,390,1101,390,None,720,1280,24,720,24,4,2,1280,Win32,襯衫,"['盒裝衛生紙', '羽毛撣子', '羽毛撣子', '蝴蝶', '椅子', '杯子']",186,2022/04/29 02:55:14,2022/04/29 02:57:23,00:09:43,Default,108286,General Multiple,FINISHED,none
Exp,None,3,Mozilla,Netscape,"5.0 (Windows NT 10.0; Win64; x64) AppleWebKit/537.36 (KHTML, like Gecko) Chrome/100.0.4896.127 Safari/537.36",1,0,1,a,a,None,29-03-22,29-03-22,10:56:01,0,0,0,0,0,1sy8ixw7o,108129,3.7.3,n,cuppink_CWL.png,衣櫃,563,1101,563,None,720,1280,24,720,24,4,2,1280,Win32,杯子,"['盒裝衛生紙', '羽毛撣子', '羽毛撣子', '蝴蝶', '椅子', '杯子']",187,2022/04/29 02:55:14,2022/04/29 02:57:23,00:09:43,Default,108286,General Multiple,FINISHED,none
Exp,None,5,Mozilla,Netscape,"5.0 (Windows NT 10.0; Win64; x64) AppleWebKit/537.36 (KHTML, like Gecko) Chrome/100.0.4896.127 Safari/537.36",1,0,1,a,a,None,29-03-22,29-03-22,10:56:01,0,0,0,0,0,1sy8ixw7o,108129,3.7.3,n,chair_HKL.png,緊身褲,338,1101,338,None,720,1280,24,720,24,4,2,1280,Win32,椅子,"['盒裝衛生紙', '羽毛撣子', '羽毛撣子', '蝴蝶', '椅子', '杯子']",188,2022/04/29 02:55:14,2022/04/29 02:57:23,00:09:43,Default,108286,General Multiple,FINISHED,none
Exp,None,4,Mozilla,Netscape,"5.0 (Windows NT 10.0; Win64; x64) AppleWebKit/537.36 (KHTML, like Gecko) Chrome/100.0.4896.127 Safari/537.36",1,0,1,a,a,None,29-03-22,29-03-22,10:56:01,0,0,0,0,0,1sy8ixw7o,108129,3.7.3,n,binorange_CHN.png,手鐲,347,1101,347,None,720,1280,24,720,24,4,2,1280,Win32,蝴蝶,"['盒裝衛生紙', '羽毛撣子', '羽毛撣子', '蝴蝶', '椅子', '杯子']",189,2022/04/29 02:55:14,2022/04/29 02:57:23,00:09:43,Default,108286,General Multiple,FINISHED,none
Exp,None,4,Mozilla,Netscape,"5.0 (Windows NT 10.0; Win64; x64) AppleWebKit/537.36 (KHTML, like Gecko) Chrome/100.0.4896.127 Safari/537.36",1,0,1,a,a,None,29-03-22,29-03-22,10:56:01,0,0,0,0,0,1sy8ixw7o,108129,3.7.3,n,featherdusterbrown_CWL.png,襯衫,306,1101,306,None,720,1280,24,720,24,4,2,1280,Win32,羽毛撣子,"['盒裝衛生紙', '羽毛撣子', '羽毛撣子', '蝴蝶', '椅子', '杯子']",190,2022/04/29 02:55:14,2022/04/29 02:57:23,00:09:43,Default,108286,General Multiple,FINISHED,none
Exp,None,0,Mozilla,Netscape,"5.0 (Windows NT 10.0; Win64; x64) AppleWebKit/537.36 (KHTML, like Gecko) Chrome/100.0.4896.127 Safari/537.36",1,0,1,l,l,None,29-03-22,29-03-22,10:56:01,0,0,0,0,0,1sy8ixw7o,108129,3.7.3,n,featherduster_CWL.png,羽毛撣子,431,1101,431,None,720,1280,24,720,24,4,2,1280,Win32,羽毛撣子,"['盒裝衛生紙', '羽毛撣子', '羽毛撣子', '蝴蝶', '椅子', '杯子']",191,2022/04/29 02:55:14,2022/04/29 02:57:23,00:09:43,Default,108286,General Multiple,FINISHED,none
Exp,None,2,Mozilla,Netscape,"5.0 (Windows NT 10.0; Win64; x64) AppleWebKit/537.36 (KHTML, like Gecko) Chrome/100.0.4896.127 Safari/537.36",1,0,1,l,l,None,29-03-22,29-03-22,10:56:01,0,0,0,0,0,1sy8ixw7o,108129,3.7.3,n,icecream_CHN.png,羽毛撣子,342,1101,342,None,720,1280,24,720,24,4,2,1280,Win32,盒裝衛生紙,"['盒裝衛生紙', '羽毛撣子', '羽毛撣子', '蝴蝶', '椅子', '杯子']",192,2022/04/29 02:55:14,2022/04/29 02:57:23,00:09:43,Default,108286,General Multiple,FINISHED,none
Post,gender,2,Mozilla,Netscape,"5.0 (Windows NT 10.0; Win64; x64) AppleWebKit/537.36 (KHTML, like Gecko) Chrome/100.0.4896.127 Safari/537.36",0,0,1,l,l,None,29-03-22,29-03-22,10:56:01,0,0,0,0,0,1sy8ixw7o,108129,3.7.3,n,icecream_CHN.png,羽毛撣子,2276,1101,342,None,720,1280,24,720,24,4,2,1280,Win32,盒裝衛生紙,"['盒裝衛生紙', '羽毛撣子', '羽毛撣子', '蝴蝶', '椅子', '杯子']",192,2022/04/29 02:55:14,2022/04/29 02:57:23,00:09:43,Default,108286,General Multiple,FINISHED,none
Post,birth_12,2,Mozilla,Netscape,"5.0 (Windows NT 10.0; Win64; x64) AppleWebKit/537.36 (KHTML, like Gecko) Chrome/100.0.4896.127 Safari/537.36",0,0,1,l,l,None,29-03-22,29-03-22,10:56:01,0,0,0,0,0,1sy8ixw7o,108129,3.7.3,n,icecream_CHN.png,羽毛撣子,5937,1101,342,None,720,1280,24,720,24,4,2,1280,Win32,盒裝衛生紙,"['盒裝衛生紙', '羽毛撣子', '羽毛撣子', '蝴蝶', '椅子', '杯子']",192,2022/04/29 02:55:14,2022/04/29 02:57:23,00:09:43,Default,108286,General Multiple,FINISHED,none
Post,birth_3,2,Mozilla,Netscape,"5.0 (Windows NT 10.0; Win64; x64) AppleWebKit/537.36 (KHTML, like Gecko) Chrome/100.0.4896.127 Safari/537.36",0,0,1,l,l,None,29-03-22,29-03-22,10:56:01,0,0,0,0,0,1sy8ixw7o,108129,3.7.3,n,icecream_CHN.png,羽毛撣子,8542,1101,342,None,720,1280,24,720,24,4,2,1280,Win32,盒裝衛生紙,"['盒裝衛生紙', '羽毛撣子', '羽毛撣子', '蝴蝶', '椅子', '杯子']",192,2022/04/29 02:55:14,2022/04/29 02:57:23,00:09:43,Default,108286,General Multiple,FINISHED,none
Post,birth_4,2,Mozilla,Netscape,"5.0 (Windows NT 10.0; Win64; x64) AppleWebKit/537.36 (KHTML, like Gecko) Chrome/100.0.4896.127 Safari/537.36",0,0,1,l,l,None,29-03-22,29-03-22,10:56:01,0,0,0,0,0,1sy8ixw7o,108129,3.7.3,n,icecream_CHN.png,羽毛撣子,1400,1101,342,None,720,1280,24,720,24,4,2,1280,Win32,盒裝衛生紙,"['盒裝衛生紙', '羽毛撣子', '羽毛撣子', '蝴蝶', '椅子', '杯子']",192,2022/04/29 02:55:14,2022/04/29 02:57:23,00:09:43,Default,108286,General Multiple,FINISHED,none
consent,None,None,Mozilla,Netscape,"5.0 (Windows NT 10.0; Win64; x64) AppleWebKit/537.36 (KHTML, like Gecko) Chrome/100.0.4896.88 Safari/537.36",NA,None,None,None,None,None,28-03-22,28-03-22,19:34:43,0,0,0,0,0,bjhye9mg7,107821,3.7.3,None,None,None,4032,None,None,None,824,1536,24,864,24,0,0,1536,Win32,None,None,None,2022/04/28 11:34:10,never,00:12:02,Default,107986,General Multiple,FINISHED,none
Prac,None,None,Mozilla,Netscape,"5.0 (Windows NT 10.0; Win64; x64) AppleWebKit/537.36 (KHTML, like Gecko) Chrome/100.0.4896.88 Safari/537.36",1,None,1,a,a,None,28-03-22,28-03-22,19:34:43,0,0,0,0,0,bjhye9mg7,107821,3.7.3,n,kangaroo_1.png,[],532,None,532,None,824,1536,24,864,24,0,0,1536,Win32,文件夾,"['橘子', '拖把', '檸檬', '兔子', '香蕉', '時鐘']",1,2022/04/28 11:34:10,never,00:12:02,Default,107986,General Multiple,FINISHED,none
Prac,None,None,Mozilla,Netscape,"5.0 (Windows NT 10.0; Win64; x64) AppleWebKit/537.36 (KHTML, like Gecko) Chrome/100.0.4896.88 Safari/537.36",1,None,1,a,a,None,28-03-22,28-03-22,19:34:43,0,0,0,0,0,bjhye9mg7,107821,3.7.3,n,banana green.png,[],525,None,525,None,824,1536,24,864,24,0,0,1536,Win32,李子,"['橘子', '拖把', '檸檬', '兔子', '香蕉', '時鐘']",2,2022/04/28 11:34:10,never,00:12:02,Default,107986,General Multiple,FINISHED,none
Prac,None,None,Mozilla,Netscape,"5.0 (Windows NT 10.0; Win64; x64) AppleWebKit/537.36 (KHTML, like Gecko) Chrome/100.0.4896.88 Safari/537.36",1,None,1,a,a,None,28-03-22,28-03-22,19:34:43,0,0,0,0,0,bjhye9mg7,107821,3.7.3,n,clock_300.png,[],497,None,497,None,824,1536,24,864,24,0,0,1536,Win32,金字塔,"['橘子', '拖把', '檸檬', '兔子', '香蕉', '時鐘']",3,2022/04/28 11:34:10,never,00:12:02,Default,107986,General Multiple,FINISHED,none
Prac,None,None,Mozilla,Netscape,"5.0 (Windows NT 10.0; Win64; x64) AppleWebKit/537.36 (KHTML, like Gecko) Chrome/100.0.4896.88 Safari/537.36",1,None,1,l,l,None,28-03-22,28-03-22,19:34:43,0,0,0,0,0,bjhye9mg7,107821,3.7.3,n,monkeyorange_1_240.png,[],474,None,474,None,824,1536,24,864,24,0,0,1536,Win32,猴子,"['橘子', '拖把', '檸檬', '兔子', '香蕉', '時鐘']",4,2022/04/28 11:34:10,never,00:12:02,Default,107986,General Multiple,FINISHED,none
Prac,None,None,Mozilla,Netscape,"5.0 (Windows NT 10.0; Win64; x64) AppleWebKit/537.36 (KHTML, like Gecko) Chrome/100.0.4896.88 Safari/537.36",1,None,1,l,l,None,28-03-22,28-03-22,19:34:43,0,0,0,0,0,bjhye9mg7,107821,3.7.3,n,kangaroo_1.png,[],374,None,374,None,824,1536,24,864,24,0,0,1536,Win32,袋鼠,"['橘子', '拖把', '檸檬', '兔子', '香蕉', '時鐘']",5,2022/04/28 11:34:10,never,00:12:02,Default,107986,General Multiple,FINISHED,none
Prac,None,1,Mozilla,Netscape,"5.0 (Windows NT 10.0; Win64; x64) AppleWebKit/537.36 (KHTML, like Gecko) Chrome/100.0.4896.88 Safari/537.36",1,None,1,l,l,None,28-03-22,28-03-22,19:34:43,0,0,0,0,0,bjhye9mg7,107821,3.7.3,n,broom_2.png,袋鼠,426,None,426,None,824,1536,24,864,24,0,0,1536,Win32,掃帚,"['橘子', '拖把', '檸檬', '兔子', '香蕉', '時鐘']",6,2022/04/28 11:34:10,never,00:12:02,Default,107986,General Multiple,FINISHED,none
Prac,None,4,Mozilla,Netscape,"5.0 (Windows NT 10.0; Win64; x64) AppleWebKit/537.36 (KHTML, like Gecko) Chrome/100.0.4896.88 Safari/537.36",1,None,1,a,a,None,28-03-22,28-03-22,19:34:43,0,0,0,0,0,bjhye9mg7,107821,3.7.3,n,clock_300.png,金字塔,1024,None,1024,None,824,1536,24,864,24,0,0,1536,Win32,時鐘,"['橘子', '拖把', '檸檬', '兔子', '香蕉', '時鐘']",7,2022/04/28 11:34:10,never,00:12:02,Default,107986,General Multiple,FINISHED,none
Prac,None,2,Mozilla,Netscape,"5.0 (Windows NT 10.0; Win64; x64) AppleWebKit/537.36 (KHTML, like Gecko) Chrome/100.0.4896.88 Safari/537.36",0,0,1,l,l,None,28-03-22,28-03-22,19:34:43,0,0,0,0,0,bjhye9mg7,107821,3.7.3,y,banana green.png,掃帚,1018,1018,425,None,824,1536,24,864,24,0,0,1536,Win32,香蕉,"['橘子', '拖把', '檸檬', '兔子', '香蕉', '時鐘']",8,2022/04/28 11:34:10,never,00:12:02,Default,107986,General Multiple,FINISHED,none
Prac,None,2,Mozilla,Netscape,"5.0 (Windows NT 10.0; Win64; x64) AppleWebKit/537.36 (KHTML, like Gecko) Chrome/100.0.4896.88 Safari/537.36",1,0,1,l,l,None,28-03-22,28-03-22,19:34:43,0,0,0,0,0,bjhye9mg7,107821,3.7.3,n,monkeyorange_1_240.png,時鐘,490,1018,490,None,824,1536,24,864,24,0,0,1536,Win32,兔子,"['橘子', '拖把', '檸檬', '兔子', '香蕉', '時鐘']",9,2022/04/28 11:34:10,never,00:12:02,Default,107986,General Multiple,FINISHED,none
Prac,None,0,Mozilla,Netscape,"5.0 (Windows NT 10.0; Win64; x64) AppleWebKit/537.36 (KHTML, like Gecko) Chrome/100.0.4896.88 Safari/537.36",1,0,1,l,l,None,28-03-22,28-03-22,19:34:43,0,0,0,0,0,bjhye9mg7,107821,3.7.3,n,orangeorange_1.png,檸檬,424,1018,424,None,824,1536,24,864,24,0,0,1536,Win32,檸檬,"['橘子', '拖把', '檸檬', '兔子', '香蕉', '時鐘']",10,2022/04/28 11:34:10,never,00:12:02,Default,107986,General Multiple,FINISHED,none
Prac,None,3,Mozilla,Netscape,"5.0 (Windows NT 10.0; Win64; x64) AppleWebKit/537.36 (KHTML, like Gecko) Chrome/100.0.4896.88 Safari/537.36",1,0,1,a,a,None,28-03-22,28-03-22,19:34:43,0,0,0,0,0,bjhye9mg7,107821,3.7.3,n,broom_2.png,香蕉,675,1018,675,None,824,1536,24,864,24,0,0,1536,Win32,拖把,"['橘子', '拖把', '檸檬', '兔子', '香蕉', '時鐘']",11,2022/04/28 11:34:10,never,00:12:02,Default,107986,General Multiple,FINISHED,none
Prac,None,3,Mozilla,Netscape,"5.0 (Windows NT 10.0; Win64; x64) AppleWebKit/537.36 (KHTML, like Gecko) Chrome/100.0.4896.88 Safari/537.36",1,0,1,a,a,None,28-03-22,28-03-22,19:34:43,0,0,0,0,0,bjhye9mg7,107821,3.7.3,n,orangeorange_1.png,兔子,560,1018,560,None,824,1536,24,864,24,0,0,1536,Win32,橘子,"['橘子', '拖把', '檸檬', '兔子', '香蕉', '時鐘']",12,2022/04/28 11:34:10,never,00:12:02,Default,107986,General Multiple,FINISHED,none
Exp,None,3,Mozilla,Netscape,"5.0 (Windows NT 10.0; Win64; x64) AppleWebKit/537.36 (KHTML, like Gecko) Chrome/100.0.4896.88 Safari/537.36",1,0,1,l,l,None,28-03-22,28-03-22,19:34:43,0,0,0,0,0,bjhye9mg7,107821,3.7.3,n,bowl_CWL.png,[],472,1018,472,None,824,1536,24,864,24,0,0,1536,Win32,碗,"['鬧鐘', '打火機', '沙發', '圍巾', '支票簿', '手錶']",1,2022/04/28 11:34:10,never,00:12:02,Default,107986,General Multiple,FINISHED,none
Exp,None,3,Mozilla,Netscape,"5.0 (Windows NT 10.0; Win64; x64) AppleWebKit/537.36 (KHTML, like Gecko) Chrome/100.0.4896.88 Safari/537.36",1,0,1,l,l,None,28-03-22,28-03-22,19:34:43,0,0,0,0,0,bjhye9mg7,107821,3.7.3,n,rake_CHN.png,[],388,1018,388,None,824,1536,24,864,24,0,0,1536,Win32,耙子,"['鬧鐘', '打火機', '沙發', '圍巾', '支票簿', '手錶']",2,2022/04/28 11:34:10,never,00:12:02,Default,107986,General Multiple,FINISHED,none
Exp,None,3,Mozilla,Netscape,"5.0 (Windows NT 10.0; Win64; x64) AppleWebKit/537.36 (KHTML, like Gecko) Chrome/100.0.4896.88 Safari/537.36",1,0,1,l,l,None,28-03-22,28-03-22,19:34:43,0,0,0,0,0,bjhye9mg7,107821,3.7.3,n,book_CWL.png,[],419,1018,419,None,824,1536,24,864,24,0,0,1536,Win32,精裝書,"['鬧鐘', '打火機', '沙發', '圍巾', '支票簿', '手錶']",3,2022/04/28 11:34:10,never,00:12:02,Default,107986,General Multiple,FINISHED,none
Exp,None,3,Mozilla,Netscape,"5.0 (Windows NT 10.0; Win64; x64) AppleWebKit/537.36 (KHTML, like Gecko) Chrome/100.0.4896.88 Safari/537.36",1,0,1,l,l,None,28-03-22,28-03-22,19:34:43,0,0,0,0,0,bjhye9mg7,107821,3.7.3,n,purse_HKL.png,[],519,1018,519,None,824,1536,24,864,24,0,0,1536,Win32,手提包,"['鬧鐘', '打火機', '沙發', '圍巾', '支票簿', '手錶']",4,2022/04/28 11:34:10,never,00:12:02,Default,107986,General Multiple,FINISHED,none
Exp,None,3,Mozilla,Netscape,"5.0 (Windows NT 10.0; Win64; x64) AppleWebKit/537.36 (KHTML, like Gecko) Chrome/100.0.4896.88 Safari/537.36",1,0,1,l,l,None,28-03-22,28-03-22,19:34:43,0,0,0,0,0,bjhye9mg7,107821,3.7.3,n,featherduster_CWL.png,[],601,1018,601,None,824,1536,24,864,24,0,0,1536,Win32,羽毛撣子,"['鬧鐘', '打火機', '沙發', '圍巾', '支票簿', '手錶']",5,2022/04/28 11:34:10,never,00:12:02,Default,107986,General Multiple,FINISHED,none
Exp,None,5,Mozilla,Netscape,"5.0 (Windows NT 10.0; Win64; x64) AppleWebKit/537.36 (KHTML, like Gecko) Chrome/100.0.4896.88 Safari/537.36",1,0,1,a,a,None,28-03-22,28-03-22,19:34:43,0,0,0,0,0,bjhye9mg7,107821,3.7.3,n,icecream_CHN.png,碗,650,1018,650,None,824,1536,24,864,24,0,0,1536,Win32,盒裝衛生紙,"['鬧鐘', '打火機', '沙發', '圍巾', '支票簿', '手錶']",6,2022/04/28 11:34:10,never,00:12:02,Default,107986,General Multiple,FINISHED,none
