"Task","PPnr","Trial Type","Target Type","trial","accuracy","reaction_time"
"short cue","R_08x3yfNtCFtgBYl","dual feature","Match","sim_conj_gd_m_2",1,1.521
"short cue","R_08x3yfNtCFtgBYl","dual feature","Mismatch","sim_conj_gd_mm_1",1,2.504
"short cue","R_08x3yfNtCFtgBYl","dual feature","Mismatch","sim_conj_gd_mm_2",0,1.477
"short cue","R_08x3yfNtCFtgBYl","dual feature","Match","sim_conj_gs_m_2",1,1.538
"short cue","R_08x3yfNtCFtgBYl","dual feature","Match","sim_conj_rd_m_2",1,2.024
"short cue","R_08x3yfNtCFtgBYl","dual feature","Mismatch","sim_conj_rd_mm_1",1,2.031
"short cue","R_08x3yfNtCFtgBYl","dual feature","Mismatch","sim_conj_rd_mm_2",1,1.553
"short cue","R_08x3yfNtCFtgBYl","dual feature","Match","sim_conj_rs_m_1",1,2.727
"short cue","R_08x3yfNtCFtgBYl","dual feature","Match","sim_conj_rs_m_2",1,1.555
"short cue","R_08x3yfNtCFtgBYl","dual feature","Mismatch","sim_conj_rs_mm_1",1,1.715
"short cue","R_08x3yfNtCFtgBYl","dual feature","Mismatch","sim_conj_rs_mm_2",1,1.563
"short cue","R_08x3yfNtCFtgBYl","single feature","Match","sim_sing_gd_m_1",1,1.589
"short cue","R_08x3yfNtCFtgBYl","single feature","Match","sim_sing_gd_m_2",1,2.234
"short cue","R_08x3yfNtCFtgBYl","single feature","Mismatch","sim_sing_gd_mm_1",1,2.42
"short cue","R_08x3yfNtCFtgBYl","single feature","Match","sim_sing_gs_m_1",1,1.546
"short cue","R_08x3yfNtCFtgBYl","single feature","Match","sim_sing_gs_m_2",1,1.557
"short cue","R_08x3yfNtCFtgBYl","single feature","Mismatch","sim_sing_gs_mm_1",1,1.689
"short cue","R_08x3yfNtCFtgBYl","single feature","Mismatch","sim_sing_gs_mm_2",1,1.788
"short cue","R_08x3yfNtCFtgBYl","single feature","Match","sim_sing_rd_m_1",1,1.673
"short cue","R_08x3yfNtCFtgBYl","single feature","Match","sim_sing_rd_m_2",1,1.649
"short cue","R_08x3yfNtCFtgBYl","single feature","Mismatch","sim_sing_rd_mm_2",1,2.075
"short cue","R_08x3yfNtCFtgBYl","single feature","Match","sim_sing_rs_m_1",1,1.629
"short cue","R_08x3yfNtCFtgBYl","single feature","Match","sim_sing_rs_m_2",1,2.528
"short cue","R_08x3yfNtCFtgBYl","single feature","Mismatch","sim_sing_rs_mm_1",1,2.34
"short cue","R_08x3yfNtCFtgBYl","single feature","Mismatch","sim_sing_rs_mm_2",1,1.529
"short cue","R_0OmSAzFURsT3hND","dual feature","Match","sim_conj_gd_m_1",1,0.984
"short cue","R_0OmSAzFURsT3hND","dual feature","Match","sim_conj_gd_m_2",1,0.518
"short cue","R_0OmSAzFURsT3hND","dual feature","Mismatch","sim_conj_gd_mm_1",1,0.559
"short cue","R_0OmSAzFURsT3hND","dual feature","Mismatch","sim_conj_gd_mm_2",0,0.665
"short cue","R_0OmSAzFURsT3hND","dual feature","Match","sim_conj_gs_m_1",1,0.891
"short cue","R_0OmSAzFURsT3hND","dual feature","Match","sim_conj_gs_m_2",1,0.482
"short cue","R_0OmSAzFURsT3hND","dual feature","Mismatch","sim_conj_gs_mm_1",1,1.159
"short cue","R_0OmSAzFURsT3hND","dual feature","Mismatch","sim_conj_gs_mm_2",1,0.763
"short cue","R_0OmSAzFURsT3hND","dual feature","Match","sim_conj_rd_m_1",1,0.814
"short cue","R_0OmSAzFURsT3hND","dual feature","Match","sim_conj_rd_m_2",1,0.749
"short cue","R_0OmSAzFURsT3hND","dual feature","Mismatch","sim_conj_rd_mm_1",1,0.749
"short cue","R_0OmSAzFURsT3hND","dual feature","Mismatch","sim_conj_rd_mm_2",1,0.854
"short cue","R_0OmSAzFURsT3hND","dual feature","Match","sim_conj_rs_m_1",1,0.783
"short cue","R_0OmSAzFURsT3hND","dual feature","Match","sim_conj_rs_m_2",1,0.597
"short cue","R_0OmSAzFURsT3hND","dual feature","Mismatch","sim_conj_rs_mm_1",1,0.535
"short cue","R_0OmSAzFURsT3hND","dual feature","Mismatch","sim_conj_rs_mm_2",1,0.538
"short cue","R_0OmSAzFURsT3hND","single feature","Match","sim_sing_gd_m_1",1,0.946
"short cue","R_0OmSAzFURsT3hND","single feature","Match","sim_sing_gd_m_2",1,1.181
"short cue","R_0OmSAzFURsT3hND","single feature","Mismatch","sim_sing_gd_mm_1",1,1.695
"short cue","R_0OmSAzFURsT3hND","single feature","Mismatch","sim_sing_gd_mm_2",1,1.58
"short cue","R_0OmSAzFURsT3hND","single feature","Match","sim_sing_gs_m_1",1,0.818
"short cue","R_0OmSAzFURsT3hND","single feature","Match","sim_sing_gs_m_2",1,0.857
"short cue","R_0OmSAzFURsT3hND","single feature","Mismatch","sim_sing_gs_mm_1",1,1.908
"short cue","R_0OmSAzFURsT3hND","single feature","Mismatch","sim_sing_gs_mm_2",1,0.952
"short cue","R_0OmSAzFURsT3hND","single feature","Match","sim_sing_rd_m_1",1,0.752
"short cue","R_0OmSAzFURsT3hND","single feature","Match","sim_sing_rd_m_2",1,1.221
"short cue","R_0OmSAzFURsT3hND","single feature","Mismatch","sim_sing_rd_mm_1",1,0.962
"short cue","R_0OmSAzFURsT3hND","single feature","Mismatch","sim_sing_rd_mm_2",1,1.261
"short cue","R_0OmSAzFURsT3hND","single feature","Match","sim_sing_rs_m_1",1,1.472
"short cue","R_0OmSAzFURsT3hND","single feature","Match","sim_sing_rs_m_2",1,1.039
"short cue","R_0OmSAzFURsT3hND","single feature","Mismatch","sim_sing_rs_mm_1",1,0.892
"short cue","R_0OmSAzFURsT3hND","single feature","Mismatch","sim_sing_rs_mm_2",1,1.132
"short cue","R_10ZPMCCzcV8FG6A","dual feature","Match","sim_conj_gd_m_1",1,1.408
"short cue","R_10ZPMCCzcV8FG6A","dual feature","Match","sim_conj_gd_m_2",1,0.947
"short cue","R_10ZPMCCzcV8FG6A","dual feature","Mismatch","sim_conj_gd_mm_1",1,0.987
"short cue","R_10ZPMCCzcV8FG6A","dual feature","Mismatch","sim_conj_gd_mm_2",1,0.825
"short cue","R_10ZPMCCzcV8FG6A","dual feature","Match","sim_conj_gs_m_1",1,0.988
"short cue","R_10ZPMCCzcV8FG6A","dual feature","Match","sim_conj_gs_m_2",1,1.242
"short cue","R_10ZPMCCzcV8FG6A","dual feature","Mismatch","sim_conj_gs_mm_1",1,0.832
"short cue","R_10ZPMCCzcV8FG6A","dual feature","Mismatch","sim_conj_gs_mm_2",1,0.714
"short cue","R_10ZPMCCzcV8FG6A","dual feature","Match","sim_conj_rd_m_1",1,1.214
"short cue","R_10ZPMCCzcV8FG6A","dual feature","Match","sim_conj_rd_m_2",1,1.237
"short cue","R_10ZPMCCzcV8FG6A","dual feature","Mismatch","sim_conj_rd_mm_1",1,0.925
"short cue","R_10ZPMCCzcV8FG6A","dual feature","Mismatch","sim_conj_rd_mm_2",1,0.71
"short cue","R_10ZPMCCzcV8FG6A","dual feature","Match","sim_conj_rs_m_1",1,1.332
"short cue","R_10ZPMCCzcV8FG6A","dual feature","Match","sim_conj_rs_m_2",1,1.123
"short cue","R_10ZPMCCzcV8FG6A","dual feature","Mismatch","sim_conj_rs_mm_1",1,0.75
"short cue","R_10ZPMCCzcV8FG6A","dual feature","Mismatch","sim_conj_rs_mm_2",1,0.602
"short cue","R_10ZPMCCzcV8FG6A","single feature","Match","sim_sing_gd_m_1",1,0.914
"short cue","R_10ZPMCCzcV8FG6A","single feature","Match","sim_sing_gd_m_2",1,1.326
"short cue","R_10ZPMCCzcV8FG6A","single feature","Mismatch","sim_sing_gd_mm_1",1,0.648
"short cue","R_10ZPMCCzcV8FG6A","single feature","Mismatch","sim_sing_gd_mm_2",1,0.732
"short cue","R_10ZPMCCzcV8FG6A","single feature","Match","sim_sing_gs_m_1",1,0.971
"short cue","R_10ZPMCCzcV8FG6A","single feature","Match","sim_sing_gs_m_2",1,1.527
"short cue","R_10ZPMCCzcV8FG6A","single feature","Mismatch","sim_sing_gs_mm_1",1,0.744
"short cue","R_10ZPMCCzcV8FG6A","single feature","Mismatch","sim_sing_gs_mm_2",1,0.635
"short cue","R_10ZPMCCzcV8FG6A","single feature","Match","sim_sing_rd_m_1",1,1.046
"short cue","R_10ZPMCCzcV8FG6A","single feature","Match","sim_sing_rd_m_2",1,1.631
"short cue","R_10ZPMCCzcV8FG6A","single feature","Mismatch","sim_sing_rd_mm_1",1,0.93
"short cue","R_10ZPMCCzcV8FG6A","single feature","Mismatch","sim_sing_rd_mm_2",1,0.883
"short cue","R_10ZPMCCzcV8FG6A","single feature","Match","sim_sing_rs_m_1",1,1.181
"short cue","R_10ZPMCCzcV8FG6A","single feature","Match","sim_sing_rs_m_2",1,1.064
"short cue","R_10ZPMCCzcV8FG6A","single feature","Mismatch","sim_sing_rs_mm_1",1,0.583
"short cue","R_10ZPMCCzcV8FG6A","single feature","Mismatch","sim_sing_rs_mm_2",1,0.77
"short cue","R_12s68Ligswec1t3","dual feature","Match","sim_conj_gd_m_1",1,0.548
"short cue","R_12s68Ligswec1t3","dual feature","Match","sim_conj_gd_m_2",0,0.798
"short cue","R_12s68Ligswec1t3","dual feature","Mismatch","sim_conj_gd_mm_1",1,0.499
"short cue","R_12s68Ligswec1t3","dual feature","Mismatch","sim_conj_gd_mm_2",1,0.534
"short cue","R_12s68Ligswec1t3","dual feature","Match","sim_conj_gs_m_1",1,0.502
"short cue","R_12s68Ligswec1t3","dual feature","Match","sim_conj_gs_m_2",1,0.553
"short cue","R_12s68Ligswec1t3","dual feature","Mismatch","sim_conj_gs_mm_1",1,0.548
"short cue","R_12s68Ligswec1t3","dual feature","Mismatch","sim_conj_gs_mm_2",1,0.502
"short cue","R_12s68Ligswec1t3","dual feature","Match","sim_conj_rd_m_1",1,0.528
"short cue","R_12s68Ligswec1t3","dual feature","Match","sim_conj_rd_m_2",1,0.57
"short cue","R_12s68Ligswec1t3","dual feature","Mismatch","sim_conj_rd_mm_1",1,0.643
"short cue","R_12s68Ligswec1t3","dual feature","Mismatch","sim_conj_rd_mm_2",1,0.515
"short cue","R_12s68Ligswec1t3","dual feature","Match","sim_conj_rs_m_1",1,0.442
"short cue","R_12s68Ligswec1t3","dual feature","Match","sim_conj_rs_m_2",1,0.503
"short cue","R_12s68Ligswec1t3","dual feature","Mismatch","sim_conj_rs_mm_1",1,0.463
"short cue","R_12s68Ligswec1t3","dual feature","Mismatch","sim_conj_rs_mm_2",1,0.633
"short cue","R_12s68Ligswec1t3","single feature","Match","sim_sing_gd_m_1",1,0.459
"short cue","R_12s68Ligswec1t3","single feature","Match","sim_sing_gd_m_2",1,1.04
"short cue","R_12s68Ligswec1t3","single feature","Mismatch","sim_sing_gd_mm_1",1,0.481
"short cue","R_12s68Ligswec1t3","single feature","Mismatch","sim_sing_gd_mm_2",1,0.618
"short cue","R_12s68Ligswec1t3","single feature","Match","sim_sing_gs_m_1",1,0.43
"short cue","R_12s68Ligswec1t3","single feature","Match","sim_sing_gs_m_2",1,0.701
"short cue","R_12s68Ligswec1t3","single feature","Mismatch","sim_sing_gs_mm_1",1,0.436
"short cue","R_12s68Ligswec1t3","single feature","Mismatch","sim_sing_gs_mm_2",1,0.58
"short cue","R_12s68Ligswec1t3","single feature","Match","sim_sing_rd_m_1",1,0.565
"short cue","R_12s68Ligswec1t3","single feature","Match","sim_sing_rd_m_2",1,0.86
"short cue","R_12s68Ligswec1t3","single feature","Mismatch","sim_sing_rd_mm_1",1,0.54
"short cue","R_12s68Ligswec1t3","single feature","Mismatch","sim_sing_rd_mm_2",1,0.585
"short cue","R_12s68Ligswec1t3","single feature","Match","sim_sing_rs_m_1",1,0.521
"short cue","R_12s68Ligswec1t3","single feature","Match","sim_sing_rs_m_2",1,0.44
"short cue","R_12s68Ligswec1t3","single feature","Mismatch","sim_sing_rs_mm_1",1,0.427
"short cue","R_12s68Ligswec1t3","single feature","Mismatch","sim_sing_rs_mm_2",1,0.74
"short cue","R_1BPAkPhD282eIwa","dual feature","Match","sim_conj_gd_m_1",1,0.778
"short cue","R_1BPAkPhD282eIwa","dual feature","Match","sim_conj_gd_m_2",1,1.143
"short cue","R_1BPAkPhD282eIwa","dual feature","Mismatch","sim_conj_gd_mm_1",1,0.683
"short cue","R_1BPAkPhD282eIwa","dual feature","Mismatch","sim_conj_gd_mm_2",1,1.137
"short cue","R_1BPAkPhD282eIwa","dual feature","Match","sim_conj_gs_m_1",1,0.648
"short cue","R_1BPAkPhD282eIwa","dual feature","Match","sim_conj_gs_m_2",1,0.822
"short cue","R_1BPAkPhD282eIwa","dual feature","Mismatch","sim_conj_gs_mm_1",1,0.584
"short cue","R_1BPAkPhD282eIwa","dual feature","Mismatch","sim_conj_gs_mm_2",1,0.871
"short cue","R_1BPAkPhD282eIwa","dual feature","Match","sim_conj_rd_m_1",1,0.799
"short cue","R_1BPAkPhD282eIwa","dual feature","Match","sim_conj_rd_m_2",1,0.809
"short cue","R_1BPAkPhD282eIwa","dual feature","Mismatch","sim_conj_rd_mm_1",1,0.714
"short cue","R_1BPAkPhD282eIwa","dual feature","Mismatch","sim_conj_rd_mm_2",1,0.998
"short cue","R_1BPAkPhD282eIwa","dual feature","Match","sim_conj_rs_m_1",1,1.178
"short cue","R_1BPAkPhD282eIwa","dual feature","Match","sim_conj_rs_m_2",1,0.635
"short cue","R_1BPAkPhD282eIwa","dual feature","Mismatch","sim_conj_rs_mm_1",1,0.785
"short cue","R_1BPAkPhD282eIwa","dual feature","Mismatch","sim_conj_rs_mm_2",1,0.881
"short cue","R_1BPAkPhD282eIwa","single feature","Match","sim_sing_gd_m_1",1,1.067
"short cue","R_1BPAkPhD282eIwa","single feature","Match","sim_sing_gd_m_2",1,1.515
"short cue","R_1BPAkPhD282eIwa","single feature","Mismatch","sim_sing_gd_mm_1",1,1.031
"short cue","R_1BPAkPhD282eIwa","single feature","Mismatch","sim_sing_gd_mm_2",1,0.838
"short cue","R_1BPAkPhD282eIwa","single feature","Match","sim_sing_gs_m_1",1,1.106
"short cue","R_1BPAkPhD282eIwa","single feature","Match","sim_sing_gs_m_2",1,0.704
"short cue","R_1BPAkPhD282eIwa","single feature","Mismatch","sim_sing_gs_mm_1",1,1.942
"short cue","R_1BPAkPhD282eIwa","single feature","Mismatch","sim_sing_gs_mm_2",1,0.563
"short cue","R_1BPAkPhD282eIwa","single feature","Match","sim_sing_rd_m_1",1,0.647
"short cue","R_1BPAkPhD282eIwa","single feature","Match","sim_sing_rd_m_2",1,0.904
"short cue","R_1BPAkPhD282eIwa","single feature","Mismatch","sim_sing_rd_mm_1",1,0.786
"short cue","R_1BPAkPhD282eIwa","single feature","Mismatch","sim_sing_rd_mm_2",1,0.76
"short cue","R_1BPAkPhD282eIwa","single feature","Match","sim_sing_rs_m_1",1,1.072
"short cue","R_1BPAkPhD282eIwa","single feature","Match","sim_sing_rs_m_2",1,0.602
"short cue","R_1BPAkPhD282eIwa","single feature","Mismatch","sim_sing_rs_mm_1",1,0.718
"short cue","R_1BPAkPhD282eIwa","single feature","Mismatch","sim_sing_rs_mm_2",1,0.693
"short cue","R_1CDQa7qsN9RNzFH","dual feature","Match","sim_conj_gd_m_1",1,0.643
"short cue","R_1CDQa7qsN9RNzFH","dual feature","Match","sim_conj_gd_m_2",1,0.71
"short cue","R_1CDQa7qsN9RNzFH","dual feature","Mismatch","sim_conj_gd_mm_1",1,1.316
"short cue","R_1CDQa7qsN9RNzFH","dual feature","Mismatch","sim_conj_gd_mm_2",1,0.748
"short cue","R_1CDQa7qsN9RNzFH","dual feature","Match","sim_conj_gs_m_1",1,1.037
"short cue","R_1CDQa7qsN9RNzFH","dual feature","Match","sim_conj_gs_m_2",1,0.784
"short cue","R_1CDQa7qsN9RNzFH","dual feature","Mismatch","sim_conj_gs_mm_1",1,1.321
"short cue","R_1CDQa7qsN9RNzFH","dual feature","Mismatch","sim_conj_gs_mm_2",1,0.782
"short cue","R_1CDQa7qsN9RNzFH","dual feature","Match","sim_conj_rd_m_1",1,1.072
"short cue","R_1CDQa7qsN9RNzFH","dual feature","Match","sim_conj_rd_m_2",1,1.697
"short cue","R_1CDQa7qsN9RNzFH","dual feature","Mismatch","sim_conj_rd_mm_1",1,1.371
"short cue","R_1CDQa7qsN9RNzFH","dual feature","Mismatch","sim_conj_rd_mm_2",1,1.524
"short cue","R_1CDQa7qsN9RNzFH","dual feature","Match","sim_conj_rs_m_1",1,0.571
"short cue","R_1CDQa7qsN9RNzFH","dual feature","Match","sim_conj_rs_m_2",1,2.623
"short cue","R_1CDQa7qsN9RNzFH","dual feature","Mismatch","sim_conj_rs_mm_1",1,0.776
"short cue","R_1CDQa7qsN9RNzFH","dual feature","Mismatch","sim_conj_rs_mm_2",1,1.143
"short cue","R_1CDQa7qsN9RNzFH","single feature","Match","sim_sing_gd_m_1",1,1.868
"short cue","R_1CDQa7qsN9RNzFH","single feature","Match","sim_sing_gd_m_2",1,0.806
"short cue","R_1CDQa7qsN9RNzFH","single feature","Mismatch","sim_sing_gd_mm_1",1,1.598
"short cue","R_1CDQa7qsN9RNzFH","single feature","Mismatch","sim_sing_gd_mm_2",1,1.399
"short cue","R_1CDQa7qsN9RNzFH","single feature","Match","sim_sing_gs_m_1",1,1.506
"short cue","R_1CDQa7qsN9RNzFH","single feature","Match","sim_sing_gs_m_2",1,1.115
"short cue","R_1CDQa7qsN9RNzFH","single feature","Mismatch","sim_sing_gs_mm_1",1,0.995
"short cue","R_1CDQa7qsN9RNzFH","single feature","Mismatch","sim_sing_gs_mm_2",1,1.227
"short cue","R_1CDQa7qsN9RNzFH","single feature","Match","sim_sing_rd_m_1",1,1.316
"short cue","R_1CDQa7qsN9RNzFH","single feature","Match","sim_sing_rd_m_2",1,0.798
"short cue","R_1CDQa7qsN9RNzFH","single feature","Mismatch","sim_sing_rd_mm_1",1,1.947
"short cue","R_1CDQa7qsN9RNzFH","single feature","Mismatch","sim_sing_rd_mm_2",1,0.7
"short cue","R_1CDQa7qsN9RNzFH","single feature","Match","sim_sing_rs_m_1",1,1.643
"short cue","R_1CDQa7qsN9RNzFH","single feature","Match","sim_sing_rs_m_2",1,1.288
"short cue","R_1CDQa7qsN9RNzFH","single feature","Mismatch","sim_sing_rs_mm_1",1,1.692
"short cue","R_1CDQa7qsN9RNzFH","single feature","Mismatch","sim_sing_rs_mm_2",1,0.855
"short cue","R_1CJcSTbRoTUCqgI","dual feature","Match","sim_conj_gd_m_1",1,1.094
"short cue","R_1CJcSTbRoTUCqgI","dual feature","Match","sim_conj_gd_m_2",1,0.624
"short cue","R_1CJcSTbRoTUCqgI","dual feature","Mismatch","sim_conj_gd_mm_1",1,0.891
"short cue","R_1CJcSTbRoTUCqgI","dual feature","Mismatch","sim_conj_gd_mm_2",1,0.933
"short cue","R_1CJcSTbRoTUCqgI","dual feature","Match","sim_conj_gs_m_2",1,1.172
"short cue","R_1CJcSTbRoTUCqgI","dual feature","Mismatch","sim_conj_gs_mm_1",1,0.876
"short cue","R_1CJcSTbRoTUCqgI","dual feature","Mismatch","sim_conj_gs_mm_2",1,0.926
"short cue","R_1CJcSTbRoTUCqgI","dual feature","Match","sim_conj_rd_m_1",1,0.917
"short cue","R_1CJcSTbRoTUCqgI","dual feature","Match","sim_conj_rd_m_2",1,0.606
"short cue","R_1CJcSTbRoTUCqgI","dual feature","Mismatch","sim_conj_rd_mm_1",1,0.95
"short cue","R_1CJcSTbRoTUCqgI","dual feature","Mismatch","sim_conj_rd_mm_2",1,1.867
"short cue","R_1CJcSTbRoTUCqgI","dual feature","Match","sim_conj_rs_m_1",1,1.138
"short cue","R_1CJcSTbRoTUCqgI","dual feature","Match","sim_conj_rs_m_2",1,1.315
"short cue","R_1CJcSTbRoTUCqgI","dual feature","Mismatch","sim_conj_rs_mm_1",1,1.566
"short cue","R_1CJcSTbRoTUCqgI","dual feature","Mismatch","sim_conj_rs_mm_2",1,0.916
"short cue","R_1CJcSTbRoTUCqgI","single feature","Match","sim_sing_gd_m_1",0,1.73
"short cue","R_1CJcSTbRoTUCqgI","single feature","Match","sim_sing_gd_m_2",1,1.047
"short cue","R_1CJcSTbRoTUCqgI","single feature","Mismatch","sim_sing_gd_mm_1",1,1.658
"short cue","R_1CJcSTbRoTUCqgI","single feature","Mismatch","sim_sing_gd_mm_2",1,1.298
"short cue","R_1CJcSTbRoTUCqgI","single feature","Match","sim_sing_gs_m_1",1,0.937
"short cue","R_1CJcSTbRoTUCqgI","single feature","Match","sim_sing_gs_m_2",1,0.669
"short cue","R_1CJcSTbRoTUCqgI","single feature","Mismatch","sim_sing_gs_mm_1",1,1.263
"short cue","R_1CJcSTbRoTUCqgI","single feature","Mismatch","sim_sing_gs_mm_2",1,0.828
"short cue","R_1CJcSTbRoTUCqgI","single feature","Match","sim_sing_rd_m_1",1,1.949
"short cue","R_1CJcSTbRoTUCqgI","single feature","Match","sim_sing_rd_m_2",1,0.704
"short cue","R_1CJcSTbRoTUCqgI","single feature","Mismatch","sim_sing_rd_mm_1",1,1.667
"short cue","R_1CJcSTbRoTUCqgI","single feature","Mismatch","sim_sing_rd_mm_2",1,0.824
"short cue","R_1CJcSTbRoTUCqgI","single feature","Match","sim_sing_rs_m_1",1,0.725
"short cue","R_1CJcSTbRoTUCqgI","single feature","Match","sim_sing_rs_m_2",1,1.035
"short cue","R_1CJcSTbRoTUCqgI","single feature","Mismatch","sim_sing_rs_mm_2",1,1.428
"short cue","R_1cUmxE0nB0eQ5tx","dual feature","Match","sim_conj_gd_m_1",1,0.751
"short cue","R_1cUmxE0nB0eQ5tx","dual feature","Match","sim_conj_gd_m_2",1,0.812
"short cue","R_1cUmxE0nB0eQ5tx","dual feature","Mismatch","sim_conj_gd_mm_1",1,1.357
"short cue","R_1cUmxE0nB0eQ5tx","dual feature","Mismatch","sim_conj_gd_mm_2",1,1.283
"short cue","R_1cUmxE0nB0eQ5tx","dual feature","Match","sim_conj_gs_m_1",1,1.413
"short cue","R_1cUmxE0nB0eQ5tx","dual feature","Match","sim_conj_gs_m_2",1,0.584
"short cue","R_1cUmxE0nB0eQ5tx","dual feature","Mismatch","sim_conj_gs_mm_1",1,0.776
"short cue","R_1cUmxE0nB0eQ5tx","dual feature","Mismatch","sim_conj_gs_mm_2",1,1.14
"short cue","R_1cUmxE0nB0eQ5tx","dual feature","Match","sim_conj_rd_m_1",1,0.876
"short cue","R_1cUmxE0nB0eQ5tx","dual feature","Match","sim_conj_rd_m_2",1,0.912
"short cue","R_1cUmxE0nB0eQ5tx","dual feature","Mismatch","sim_conj_rd_mm_1",1,2.194
"short cue","R_1cUmxE0nB0eQ5tx","dual feature","Mismatch","sim_conj_rd_mm_2",1,1.113
"short cue","R_1cUmxE0nB0eQ5tx","dual feature","Match","sim_conj_rs_m_1",1,0.772
"short cue","R_1cUmxE0nB0eQ5tx","dual feature","Match","sim_conj_rs_m_2",1,0.663
"short cue","R_1cUmxE0nB0eQ5tx","dual feature","Mismatch","sim_conj_rs_mm_1",1,0.937
"short cue","R_1cUmxE0nB0eQ5tx","dual feature","Mismatch","sim_conj_rs_mm_2",1,0.815
"short cue","R_1cUmxE0nB0eQ5tx","single feature","Match","sim_sing_gd_m_1",1,1.136
"short cue","R_1cUmxE0nB0eQ5tx","single feature","Match","sim_sing_gd_m_2",1,0.675
"short cue","R_1cUmxE0nB0eQ5tx","single feature","Mismatch","sim_sing_gd_mm_1",1,0.668
"short cue","R_1cUmxE0nB0eQ5tx","single feature","Mismatch","sim_sing_gd_mm_2",1,0.995
"short cue","R_1cUmxE0nB0eQ5tx","single feature","Match","sim_sing_gs_m_1",1,1.364
"short cue","R_1cUmxE0nB0eQ5tx","single feature","Match","sim_sing_gs_m_2",1,0.873
"short cue","R_1cUmxE0nB0eQ5tx","single feature","Mismatch","sim_sing_gs_mm_1",1,0.811
"short cue","R_1cUmxE0nB0eQ5tx","single feature","Mismatch","sim_sing_gs_mm_2",1,0.875
"short cue","R_1cUmxE0nB0eQ5tx","single feature","Match","sim_sing_rd_m_1",1,0.973
"short cue","R_1cUmxE0nB0eQ5tx","single feature","Match","sim_sing_rd_m_2",1,1.227
"short cue","R_1cUmxE0nB0eQ5tx","single feature","Mismatch","sim_sing_rd_mm_1",1,0.922
"short cue","R_1cUmxE0nB0eQ5tx","single feature","Mismatch","sim_sing_rd_mm_2",1,1.248
"short cue","R_1cUmxE0nB0eQ5tx","single feature","Match","sim_sing_rs_m_1",1,1.177
"short cue","R_1cUmxE0nB0eQ5tx","single feature","Match","sim_sing_rs_m_2",1,1.469
"short cue","R_1cUmxE0nB0eQ5tx","single feature","Mismatch","sim_sing_rs_mm_1",1,0.767
"short cue","R_1cUmxE0nB0eQ5tx","single feature","Mismatch","sim_sing_rs_mm_2",1,1.845
"short cue","R_1cUnP5PoHL3kGw8","dual feature","Match","sim_conj_gd_m_1",1,1.202
"short cue","R_1cUnP5PoHL3kGw8","dual feature","Match","sim_conj_gd_m_2",1,1.401
"short cue","R_1cUnP5PoHL3kGw8","dual feature","Mismatch","sim_conj_gd_mm_1",1,0.978
"short cue","R_1cUnP5PoHL3kGw8","dual feature","Mismatch","sim_conj_gd_mm_2",1,1.654
"short cue","R_1cUnP5PoHL3kGw8","dual feature","Match","sim_conj_gs_m_1",1,1.483
"short cue","R_1cUnP5PoHL3kGw8","dual feature","Match","sim_conj_gs_m_2",1,0.99
"short cue","R_1cUnP5PoHL3kGw8","dual feature","Mismatch","sim_conj_gs_mm_1",1,1.102
"short cue","R_1cUnP5PoHL3kGw8","dual feature","Mismatch","sim_conj_gs_mm_2",1,1.151
"short cue","R_1cUnP5PoHL3kGw8","dual feature","Match","sim_conj_rd_m_1",1,1.614
"short cue","R_1cUnP5PoHL3kGw8","dual feature","Match","sim_conj_rd_m_2",1,0.715
"short cue","R_1cUnP5PoHL3kGw8","dual feature","Mismatch","sim_conj_rd_mm_1",1,0.94
"short cue","R_1cUnP5PoHL3kGw8","dual feature","Mismatch","sim_conj_rd_mm_2",1,0.968
"short cue","R_1cUnP5PoHL3kGw8","dual feature","Match","sim_conj_rs_m_1",1,0.999
"short cue","R_1cUnP5PoHL3kGw8","dual feature","Match","sim_conj_rs_m_2",1,0.948
"short cue","R_1cUnP5PoHL3kGw8","dual feature","Mismatch","sim_conj_rs_mm_1",1,0.908
"short cue","R_1cUnP5PoHL3kGw8","dual feature","Mismatch","sim_conj_rs_mm_2",1,0.977
"short cue","R_1cUnP5PoHL3kGw8","single feature","Match","sim_sing_gd_m_1",1,0.798
"short cue","R_1cUnP5PoHL3kGw8","single feature","Match","sim_sing_gd_m_2",1,1.358
"short cue","R_1cUnP5PoHL3kGw8","single feature","Mismatch","sim_sing_gd_mm_1",0,1.303
"short cue","R_1cUnP5PoHL3kGw8","single feature","Mismatch","sim_sing_gd_mm_2",1,1.696
"short cue","R_1cUnP5PoHL3kGw8","single feature","Match","sim_sing_gs_m_1",0,1.262
"short cue","R_1cUnP5PoHL3kGw8","single feature","Match","sim_sing_gs_m_2",1,0.853
"short cue","R_1cUnP5PoHL3kGw8","single feature","Mismatch","sim_sing_gs_mm_1",1,1.205
"short cue","R_1cUnP5PoHL3kGw8","single feature","Mismatch","sim_sing_gs_mm_2",1,0.991
"short cue","R_1cUnP5PoHL3kGw8","single feature","Match","sim_sing_rd_m_1",1,1.58
"short cue","R_1cUnP5PoHL3kGw8","single feature","Match","sim_sing_rd_m_2",1,1.056
"short cue","R_1cUnP5PoHL3kGw8","single feature","Mismatch","sim_sing_rd_mm_1",1,0.66
"short cue","R_1cUnP5PoHL3kGw8","single feature","Mismatch","sim_sing_rd_mm_2",1,0.832
"short cue","R_1cUnP5PoHL3kGw8","single feature","Match","sim_sing_rs_m_1",1,0.918
"short cue","R_1cUnP5PoHL3kGw8","single feature","Match","sim_sing_rs_m_2",1,1.112
"short cue","R_1cUnP5PoHL3kGw8","single feature","Mismatch","sim_sing_rs_mm_1",1,1.394
"short cue","R_1cUnP5PoHL3kGw8","single feature","Mismatch","sim_sing_rs_mm_2",1,2.129
"short cue","R_1cZYqPuI2ovCe8d","dual feature","Match","sim_conj_gd_m_1",1,0.661
"short cue","R_1cZYqPuI2ovCe8d","dual feature","Match","sim_conj_gd_m_2",1,0.381
"short cue","R_1cZYqPuI2ovCe8d","dual feature","Mismatch","sim_conj_gd_mm_1",1,0.715
"short cue","R_1cZYqPuI2ovCe8d","dual feature","Mismatch","sim_conj_gd_mm_2",1,0.467
"short cue","R_1cZYqPuI2ovCe8d","dual feature","Match","sim_conj_gs_m_1",1,0.602
"short cue","R_1cZYqPuI2ovCe8d","dual feature","Match","sim_conj_gs_m_2",0,0.634
"short cue","R_1cZYqPuI2ovCe8d","dual feature","Mismatch","sim_conj_gs_mm_1",1,0.762
"short cue","R_1cZYqPuI2ovCe8d","dual feature","Mismatch","sim_conj_gs_mm_2",1,0.36
"short cue","R_1cZYqPuI2ovCe8d","dual feature","Match","sim_conj_rd_m_1",0,1.223
"short cue","R_1cZYqPuI2ovCe8d","dual feature","Match","sim_conj_rd_m_2",1,0.488
"short cue","R_1cZYqPuI2ovCe8d","dual feature","Mismatch","sim_conj_rd_mm_1",1,0.455
"short cue","R_1cZYqPuI2ovCe8d","dual feature","Mismatch","sim_conj_rd_mm_2",1,0.723
"short cue","R_1cZYqPuI2ovCe8d","dual feature","Match","sim_conj_rs_m_1",1,0.837
"short cue","R_1cZYqPuI2ovCe8d","dual feature","Match","sim_conj_rs_m_2",1,0.44
"short cue","R_1cZYqPuI2ovCe8d","dual feature","Mismatch","sim_conj_rs_mm_1",1,1.029
"short cue","R_1cZYqPuI2ovCe8d","dual feature","Mismatch","sim_conj_rs_mm_2",1,0.72
"short cue","R_1cZYqPuI2ovCe8d","single feature","Match","sim_sing_gd_m_1",1,1.031
"short cue","R_1cZYqPuI2ovCe8d","single feature","Match","sim_sing_gd_m_2",1,1.698
"short cue","R_1cZYqPuI2ovCe8d","single feature","Mismatch","sim_sing_gd_mm_1",1,1.966
"short cue","R_1cZYqPuI2ovCe8d","single feature","Mismatch","sim_sing_gd_mm_2",1,1.052
"short cue","R_1cZYqPuI2ovCe8d","single feature","Match","sim_sing_gs_m_1",1,2.038
"short cue","R_1cZYqPuI2ovCe8d","single feature","Match","sim_sing_gs_m_2",1,0.938
"short cue","R_1cZYqPuI2ovCe8d","single feature","Mismatch","sim_sing_gs_mm_1",1,0.932
"short cue","R_1cZYqPuI2ovCe8d","single feature","Mismatch","sim_sing_gs_mm_2",1,1.791
"short cue","R_1cZYqPuI2ovCe8d","single feature","Match","sim_sing_rd_m_2",1,1.283
"short cue","R_1cZYqPuI2ovCe8d","single feature","Mismatch","sim_sing_rd_mm_1",1,1.21
"short cue","R_1cZYqPuI2ovCe8d","single feature","Mismatch","sim_sing_rd_mm_2",1,0.668
"short cue","R_1cZYqPuI2ovCe8d","single feature","Match","sim_sing_rs_m_1",1,1.181
"short cue","R_1cZYqPuI2ovCe8d","single feature","Match","sim_sing_rs_m_2",1,1.686
"short cue","R_1cZYqPuI2ovCe8d","single feature","Mismatch","sim_sing_rs_mm_1",1,2.176
"short cue","R_1DuNzuDT2Ly6aYo","dual feature","Match","sim_conj_gd_m_1",1,0.836
"short cue","R_1DuNzuDT2Ly6aYo","dual feature","Match","sim_conj_gd_m_2",1,1.277
"short cue","R_1DuNzuDT2Ly6aYo","dual feature","Mismatch","sim_conj_gd_mm_1",1,0.794
"short cue","R_1DuNzuDT2Ly6aYo","dual feature","Mismatch","sim_conj_gd_mm_2",1,0.885
"short cue","R_1DuNzuDT2Ly6aYo","dual feature","Match","sim_conj_gs_m_1",1,1.28
"short cue","R_1DuNzuDT2Ly6aYo","dual feature","Match","sim_conj_gs_m_2",1,0.815
"short cue","R_1DuNzuDT2Ly6aYo","dual feature","Mismatch","sim_conj_gs_mm_1",1,0.802
"short cue","R_1DuNzuDT2Ly6aYo","dual feature","Mismatch","sim_conj_gs_mm_2",1,0.967
"short cue","R_1DuNzuDT2Ly6aYo","dual feature","Match","sim_conj_rd_m_1",1,1.383
"short cue","R_1DuNzuDT2Ly6aYo","dual feature","Match","sim_conj_rd_m_2",1,1.344
"short cue","R_1DuNzuDT2Ly6aYo","dual feature","Mismatch","sim_conj_rd_mm_1",1,1.225
"short cue","R_1DuNzuDT2Ly6aYo","dual feature","Mismatch","sim_conj_rd_mm_2",1,1.297
"short cue","R_1DuNzuDT2Ly6aYo","dual feature","Match","sim_conj_rs_m_1",1,0.983
"short cue","R_1DuNzuDT2Ly6aYo","dual feature","Match","sim_conj_rs_m_2",1,0.755
"short cue","R_1DuNzuDT2Ly6aYo","dual feature","Mismatch","sim_conj_rs_mm_1",1,0.88
"short cue","R_1DuNzuDT2Ly6aYo","dual feature","Mismatch","sim_conj_rs_mm_2",1,1.032
"short cue","R_1DuNzuDT2Ly6aYo","single feature","Match","sim_sing_gd_m_1",1,0.678
"short cue","R_1DuNzuDT2Ly6aYo","single feature","Match","sim_sing_gd_m_2",1,0.707
"short cue","R_1DuNzuDT2Ly6aYo","single feature","Mismatch","sim_sing_gd_mm_1",1,0.927
"short cue","R_1DuNzuDT2Ly6aYo","single feature","Mismatch","sim_sing_gd_mm_2",1,0.735
"short cue","R_1DuNzuDT2Ly6aYo","single feature","Match","sim_sing_gs_m_1",1,1.046
"short cue","R_1DuNzuDT2Ly6aYo","single feature","Match","sim_sing_gs_m_2",1,0.64
"short cue","R_1DuNzuDT2Ly6aYo","single feature","Mismatch","sim_sing_gs_mm_1",1,1.362
"short cue","R_1DuNzuDT2Ly6aYo","single feature","Mismatch","sim_sing_gs_mm_2",1,0.855
"short cue","R_1DuNzuDT2Ly6aYo","single feature","Match","sim_sing_rd_m_1",1,1.107
"short cue","R_1DuNzuDT2Ly6aYo","single feature","Match","sim_sing_rd_m_2",1,0.935
"short cue","R_1DuNzuDT2Ly6aYo","single feature","Mismatch","sim_sing_rd_mm_1",1,0.909
"short cue","R_1DuNzuDT2Ly6aYo","single feature","Mismatch","sim_sing_rd_mm_2",1,1.46
"short cue","R_1DuNzuDT2Ly6aYo","single feature","Match","sim_sing_rs_m_1",1,1.344
"short cue","R_1DuNzuDT2Ly6aYo","single feature","Match","sim_sing_rs_m_2",1,0.767
"short cue","R_1DuNzuDT2Ly6aYo","single feature","Mismatch","sim_sing_rs_mm_1",1,1.789
"short cue","R_1DuNzuDT2Ly6aYo","single feature","Mismatch","sim_sing_rs_mm_2",1,1.099
"short cue","R_1Ej3yOyXSRu4rHj","dual feature","Match","sim_conj_gd_m_1",1,0.672
"short cue","R_1Ej3yOyXSRu4rHj","dual feature","Match","sim_conj_gd_m_2",1,0.275
"short cue","R_1Ej3yOyXSRu4rHj","dual feature","Mismatch","sim_conj_gd_mm_1",1,0.402
"short cue","R_1Ej3yOyXSRu4rHj","dual feature","Mismatch","sim_conj_gd_mm_2",1,0.514
"short cue","R_1Ej3yOyXSRu4rHj","dual feature","Match","sim_conj_gs_m_1",1,0.427
"short cue","R_1Ej3yOyXSRu4rHj","dual feature","Match","sim_conj_gs_m_2",1,0.285
"short cue","R_1Ej3yOyXSRu4rHj","dual feature","Mismatch","sim_conj_gs_mm_1",1,0.713
"short cue","R_1Ej3yOyXSRu4rHj","dual feature","Mismatch","sim_conj_gs_mm_2",1,0.534
"short cue","R_1Ej3yOyXSRu4rHj","dual feature","Match","sim_conj_rd_m_1",1,0.74
"short cue","R_1Ej3yOyXSRu4rHj","dual feature","Match","sim_conj_rd_m_2",1,0.378
"short cue","R_1Ej3yOyXSRu4rHj","dual feature","Mismatch","sim_conj_rd_mm_1",1,0.511
"short cue","R_1Ej3yOyXSRu4rHj","dual feature","Mismatch","sim_conj_rd_mm_2",0,0.412
"short cue","R_1Ej3yOyXSRu4rHj","dual feature","Match","sim_conj_rs_m_1",1,0.433
"short cue","R_1Ej3yOyXSRu4rHj","dual feature","Match","sim_conj_rs_m_2",1,0.31
"short cue","R_1Ej3yOyXSRu4rHj","dual feature","Mismatch","sim_conj_rs_mm_1",1,0.497
"short cue","R_1Ej3yOyXSRu4rHj","dual feature","Mismatch","sim_conj_rs_mm_2",1,0.309
"short cue","R_1Ej3yOyXSRu4rHj","single feature","Match","sim_sing_gd_m_1",1,0.332
"short cue","R_1Ej3yOyXSRu4rHj","single feature","Match","sim_sing_gd_m_2",1,0.497
"short cue","R_1Ej3yOyXSRu4rHj","single feature","Mismatch","sim_sing_gd_mm_1",1,0.5
"short cue","R_1Ej3yOyXSRu4rHj","single feature","Mismatch","sim_sing_gd_mm_2",1,0.919
"short cue","R_1Ej3yOyXSRu4rHj","single feature","Match","sim_sing_gs_m_1",1,0.498
"short cue","R_1Ej3yOyXSRu4rHj","single feature","Match","sim_sing_gs_m_2",1,1.095
"short cue","R_1Ej3yOyXSRu4rHj","single feature","Mismatch","sim_sing_gs_mm_1",1,0.418
"short cue","R_1Ej3yOyXSRu4rHj","single feature","Mismatch","sim_sing_gs_mm_2",1,0.599
"short cue","R_1Ej3yOyXSRu4rHj","single feature","Match","sim_sing_rd_m_1",1,0.315
"short cue","R_1Ej3yOyXSRu4rHj","single feature","Match","sim_sing_rd_m_2",1,1.179
"short cue","R_1Ej3yOyXSRu4rHj","single feature","Mismatch","sim_sing_rd_mm_1",1,0.669
"short cue","R_1Ej3yOyXSRu4rHj","single feature","Mismatch","sim_sing_rd_mm_2",1,0.677
"short cue","R_1Ej3yOyXSRu4rHj","single feature","Match","sim_sing_rs_m_1",1,0.499
"short cue","R_1Ej3yOyXSRu4rHj","single feature","Match","sim_sing_rs_m_2",1,0.399
"short cue","R_1Ej3yOyXSRu4rHj","single feature","Mismatch","sim_sing_rs_mm_1",1,0.467
"short cue","R_1Ej3yOyXSRu4rHj","single feature","Mismatch","sim_sing_rs_mm_2",1,0.658
"short cue","R_1eK9C4dUWMG5UoE","dual feature","Match","sim_conj_gd_m_1",1,0.555
"short cue","R_1eK9C4dUWMG5UoE","dual feature","Match","sim_conj_gd_m_2",1,0.465
"short cue","R_1eK9C4dUWMG5UoE","dual feature","Mismatch","sim_conj_gd_mm_1",1,0.777
"short cue","R_1eK9C4dUWMG5UoE","dual feature","Mismatch","sim_conj_gd_mm_2",1,0.491
"short cue","R_1eK9C4dUWMG5UoE","dual feature","Match","sim_conj_gs_m_1",1,0.695
"short cue","R_1eK9C4dUWMG5UoE","dual feature","Match","sim_conj_gs_m_2",1,0.809
"short cue","R_1eK9C4dUWMG5UoE","dual feature","Mismatch","sim_conj_gs_mm_1",1,0.468
"short cue","R_1eK9C4dUWMG5UoE","dual feature","Mismatch","sim_conj_gs_mm_2",1,0.51
"short cue","R_1eK9C4dUWMG5UoE","dual feature","Match","sim_conj_rd_m_1",1,0.395
"short cue","R_1eK9C4dUWMG5UoE","dual feature","Match","sim_conj_rd_m_2",1,0.507
"short cue","R_1eK9C4dUWMG5UoE","dual feature","Mismatch","sim_conj_rd_mm_1",1,0.617
"short cue","R_1eK9C4dUWMG5UoE","dual feature","Mismatch","sim_conj_rd_mm_2",1,0.542
"short cue","R_1eK9C4dUWMG5UoE","dual feature","Match","sim_conj_rs_m_1",1,0.653
"short cue","R_1eK9C4dUWMG5UoE","dual feature","Match","sim_conj_rs_m_2",1,0.494
"short cue","R_1eK9C4dUWMG5UoE","dual feature","Mismatch","sim_conj_rs_mm_1",1,0.45
"short cue","R_1eK9C4dUWMG5UoE","dual feature","Mismatch","sim_conj_rs_mm_2",1,0.467
"short cue","R_1eK9C4dUWMG5UoE","single feature","Match","sim_sing_gd_m_1",1,0.55
"short cue","R_1eK9C4dUWMG5UoE","single feature","Match","sim_sing_gd_m_2",1,0.421
"short cue","R_1eK9C4dUWMG5UoE","single feature","Mismatch","sim_sing_gd_mm_1",1,0.994
"short cue","R_1eK9C4dUWMG5UoE","single feature","Mismatch","sim_sing_gd_mm_2",1,0.645
"short cue","R_1eK9C4dUWMG5UoE","single feature","Match","sim_sing_gs_m_1",1,0.416
"short cue","R_1eK9C4dUWMG5UoE","single feature","Match","sim_sing_gs_m_2",1,0.431
"short cue","R_1eK9C4dUWMG5UoE","single feature","Mismatch","sim_sing_gs_mm_1",1,1.122
"short cue","R_1eK9C4dUWMG5UoE","single feature","Mismatch","sim_sing_gs_mm_2",1,0.483
"short cue","R_1eK9C4dUWMG5UoE","single feature","Match","sim_sing_rd_m_1",1,0.401
"short cue","R_1eK9C4dUWMG5UoE","single feature","Match","sim_sing_rd_m_2",1,0.45
"short cue","R_1eK9C4dUWMG5UoE","single feature","Mismatch","sim_sing_rd_mm_1",1,0.49
"short cue","R_1eK9C4dUWMG5UoE","single feature","Mismatch","sim_sing_rd_mm_2",1,0.941
"short cue","R_1eK9C4dUWMG5UoE","single feature","Match","sim_sing_rs_m_1",1,0.592
"short cue","R_1eK9C4dUWMG5UoE","single feature","Match","sim_sing_rs_m_2",1,0.575
"short cue","R_1eK9C4dUWMG5UoE","single feature","Mismatch","sim_sing_rs_mm_1",1,1.003
"short cue","R_1eK9C4dUWMG5UoE","single feature","Mismatch","sim_sing_rs_mm_2",1,0.495
"short cue","R_1erta2V92H4drrE","dual feature","Match","sim_conj_gd_m_1",1,1.138
"short cue","R_1erta2V92H4drrE","dual feature","Match","sim_conj_gd_m_2",1,1.329
"short cue","R_1erta2V92H4drrE","dual feature","Mismatch","sim_conj_gd_mm_1",0,1.338
"short cue","R_1erta2V92H4drrE","dual feature","Mismatch","sim_conj_gd_mm_2",1,1.595
"short cue","R_1erta2V92H4drrE","dual feature","Match","sim_conj_gs_m_1",1,1.04
"short cue","R_1erta2V92H4drrE","dual feature","Match","sim_conj_gs_m_2",1,0.628
"short cue","R_1erta2V92H4drrE","dual feature","Mismatch","sim_conj_gs_mm_1",1,0.78
"short cue","R_1erta2V92H4drrE","dual feature","Mismatch","sim_conj_gs_mm_2",1,1.431
"short cue","R_1erta2V92H4drrE","dual feature","Match","sim_conj_rd_m_1",1,1.922
"short cue","R_1erta2V92H4drrE","dual feature","Match","sim_conj_rd_m_2",1,0.622
"short cue","R_1erta2V92H4drrE","dual feature","Mismatch","sim_conj_rd_mm_1",1,1.401
"short cue","R_1erta2V92H4drrE","dual feature","Mismatch","sim_conj_rd_mm_2",1,0.674
"short cue","R_1erta2V92H4drrE","dual feature","Match","sim_conj_rs_m_2",1,1.141
"short cue","R_1erta2V92H4drrE","dual feature","Mismatch","sim_conj_rs_mm_1",1,1.991
"short cue","R_1erta2V92H4drrE","single feature","Match","sim_sing_gd_m_2",0,0.3
"short cue","R_1erta2V92H4drrE","single feature","Mismatch","sim_sing_gd_mm_1",1,1.642
"short cue","R_1erta2V92H4drrE","single feature","Match","sim_sing_gs_m_2",0,0.829
"short cue","R_1erta2V92H4drrE","single feature","Mismatch","sim_sing_gs_mm_1",1,1.221
"short cue","R_1erta2V92H4drrE","single feature","Mismatch","sim_sing_gs_mm_2",1,1.281
"short cue","R_1erta2V92H4drrE","single feature","Match","sim_sing_rd_m_1",1,2.63
"short cue","R_1erta2V92H4drrE","single feature","Match","sim_sing_rs_m_1",1,1.352
"short cue","R_1erta2V92H4drrE","single feature","Match","sim_sing_rs_m_2",0,1.531
"short cue","R_1erta2V92H4drrE","single feature","Mismatch","sim_sing_rs_mm_1",1,1.867
"short cue","R_1ex76BKICzdLpi3","dual feature","Match","sim_conj_gd_m_1",1,1.012
"short cue","R_1ex76BKICzdLpi3","dual feature","Match","sim_conj_gd_m_2",1,0.742
"short cue","R_1ex76BKICzdLpi3","dual feature","Mismatch","sim_conj_gd_mm_1",1,0.898
"short cue","R_1ex76BKICzdLpi3","dual feature","Mismatch","sim_conj_gd_mm_2",1,1.044
"short cue","R_1ex76BKICzdLpi3","dual feature","Match","sim_conj_gs_m_1",1,0.662
"short cue","R_1ex76BKICzdLpi3","dual feature","Match","sim_conj_gs_m_2",1,0.885
"short cue","R_1ex76BKICzdLpi3","dual feature","Mismatch","sim_conj_gs_mm_1",1,0.628
"short cue","R_1ex76BKICzdLpi3","dual feature","Mismatch","sim_conj_gs_mm_2",1,1.063
"short cue","R_1ex76BKICzdLpi3","dual feature","Match","sim_conj_rd_m_1",1,0.713
"short cue","R_1ex76BKICzdLpi3","dual feature","Match","sim_conj_rd_m_2",1,0.689
"short cue","R_1ex76BKICzdLpi3","dual feature","Mismatch","sim_conj_rd_mm_1",1,0.812
"short cue","R_1ex76BKICzdLpi3","dual feature","Mismatch","sim_conj_rd_mm_2",1,1.009
"short cue","R_1ex76BKICzdLpi3","dual feature","Match","sim_conj_rs_m_1",1,0.957
"short cue","R_1ex76BKICzdLpi3","dual feature","Match","sim_conj_rs_m_2",1,0.863
"short cue","R_1ex76BKICzdLpi3","dual feature","Mismatch","sim_conj_rs_mm_1",1,0.998
"short cue","R_1ex76BKICzdLpi3","dual feature","Mismatch","sim_conj_rs_mm_2",1,0.851
"short cue","R_1ex76BKICzdLpi3","single feature","Match","sim_sing_gd_m_1",1,0.919
"short cue","R_1ex76BKICzdLpi3","single feature","Match","sim_sing_gd_m_2",1,1.598
"short cue","R_1ex76BKICzdLpi3","single feature","Mismatch","sim_sing_gd_mm_1",1,1.234
"short cue","R_1ex76BKICzdLpi3","single feature","Mismatch","sim_sing_gd_mm_2",1,0.827
"short cue","R_1ex76BKICzdLpi3","single feature","Match","sim_sing_gs_m_1",1,1.396
"short cue","R_1ex76BKICzdLpi3","single feature","Match","sim_sing_gs_m_2",1,0.884
"short cue","R_1ex76BKICzdLpi3","single feature","Mismatch","sim_sing_gs_mm_1",1,1.372
"short cue","R_1ex76BKICzdLpi3","single feature","Mismatch","sim_sing_gs_mm_2",1,0.729
"short cue","R_1ex76BKICzdLpi3","single feature","Match","sim_sing_rd_m_1",1,0.998
"short cue","R_1ex76BKICzdLpi3","single feature","Match","sim_sing_rd_m_2",1,0.979
"short cue","R_1ex76BKICzdLpi3","single feature","Mismatch","sim_sing_rd_mm_1",1,1.37
"short cue","R_1ex76BKICzdLpi3","single feature","Mismatch","sim_sing_rd_mm_2",1,1.423
"short cue","R_1ex76BKICzdLpi3","single feature","Match","sim_sing_rs_m_1",1,1.013
"short cue","R_1ex76BKICzdLpi3","single feature","Match","sim_sing_rs_m_2",1,0.936
"short cue","R_1ex76BKICzdLpi3","single feature","Mismatch","sim_sing_rs_mm_1",1,0.956
"short cue","R_1ex76BKICzdLpi3","single feature","Mismatch","sim_sing_rs_mm_2",1,1.369
"short cue","R_1flJVVkbxzk1i5c","dual feature","Match","sim_conj_gd_m_1",1,0.519
"short cue","R_1flJVVkbxzk1i5c","dual feature","Match","sim_conj_gd_m_2",1,0.586
"short cue","R_1flJVVkbxzk1i5c","dual feature","Mismatch","sim_conj_gd_mm_1",1,0.548
"short cue","R_1flJVVkbxzk1i5c","dual feature","Mismatch","sim_conj_gd_mm_2",1,0.492
"short cue","R_1flJVVkbxzk1i5c","dual feature","Match","sim_conj_gs_m_1",1,0.509
"short cue","R_1flJVVkbxzk1i5c","dual feature","Match","sim_conj_gs_m_2",1,0.438
"short cue","R_1flJVVkbxzk1i5c","dual feature","Mismatch","sim_conj_gs_mm_1",1,0.452
"short cue","R_1flJVVkbxzk1i5c","dual feature","Mismatch","sim_conj_gs_mm_2",1,0.592
"short cue","R_1flJVVkbxzk1i5c","dual feature","Match","sim_conj_rd_m_1",1,0.44
"short cue","R_1flJVVkbxzk1i5c","dual feature","Match","sim_conj_rd_m_2",1,0.593
"short cue","R_1flJVVkbxzk1i5c","dual feature","Mismatch","sim_conj_rd_mm_1",1,0.427
"short cue","R_1flJVVkbxzk1i5c","dual feature","Mismatch","sim_conj_rd_mm_2",1,0.703
"short cue","R_1flJVVkbxzk1i5c","dual feature","Match","sim_conj_rs_m_1",1,0.606
"short cue","R_1flJVVkbxzk1i5c","dual feature","Match","sim_conj_rs_m_2",1,0.487
"short cue","R_1flJVVkbxzk1i5c","dual feature","Mismatch","sim_conj_rs_mm_1",1,0.532
"short cue","R_1flJVVkbxzk1i5c","dual feature","Mismatch","sim_conj_rs_mm_2",1,0.486
"short cue","R_1flJVVkbxzk1i5c","single feature","Match","sim_sing_gd_m_1",1,0.762
"short cue","R_1flJVVkbxzk1i5c","single feature","Match","sim_sing_gd_m_2",1,1.359
"short cue","R_1flJVVkbxzk1i5c","single feature","Mismatch","sim_sing_gd_mm_1",1,0.896
"short cue","R_1flJVVkbxzk1i5c","single feature","Mismatch","sim_sing_gd_mm_2",1,0.707
"short cue","R_1flJVVkbxzk1i5c","single feature","Match","sim_sing_gs_m_1",1,0.796
"short cue","R_1flJVVkbxzk1i5c","single feature","Match","sim_sing_gs_m_2",1,0.641
"short cue","R_1flJVVkbxzk1i5c","single feature","Mismatch","sim_sing_gs_mm_1",1,0.844
"short cue","R_1flJVVkbxzk1i5c","single feature","Mismatch","sim_sing_gs_mm_2",1,0.685
"short cue","R_1flJVVkbxzk1i5c","single feature","Match","sim_sing_rd_m_1",1,0.647
"short cue","R_1flJVVkbxzk1i5c","single feature","Match","sim_sing_rd_m_2",1,0.495
"short cue","R_1flJVVkbxzk1i5c","single feature","Mismatch","sim_sing_rd_mm_1",1,0.51
"short cue","R_1flJVVkbxzk1i5c","single feature","Mismatch","sim_sing_rd_mm_2",1,0.53
"short cue","R_1flJVVkbxzk1i5c","single feature","Match","sim_sing_rs_m_1",1,0.799
"short cue","R_1flJVVkbxzk1i5c","single feature","Match","sim_sing_rs_m_2",1,0.431
"short cue","R_1flJVVkbxzk1i5c","single feature","Mismatch","sim_sing_rs_mm_1",1,1.152
"short cue","R_1flJVVkbxzk1i5c","single feature","Mismatch","sim_sing_rs_mm_2",1,0.823
"short cue","R_1g6KjG4gA3vEJF7","dual feature","Match","sim_conj_gd_m_1",1,0.404
"short cue","R_1g6KjG4gA3vEJF7","dual feature","Match","sim_conj_gd_m_2",1,1.004
"short cue","R_1g6KjG4gA3vEJF7","dual feature","Mismatch","sim_conj_gd_mm_1",1,1.319
"short cue","R_1g6KjG4gA3vEJF7","dual feature","Mismatch","sim_conj_gd_mm_2",1,1.624
"short cue","R_1g6KjG4gA3vEJF7","dual feature","Match","sim_conj_gs_m_1",1,1.6
"short cue","R_1g6KjG4gA3vEJF7","dual feature","Match","sim_conj_gs_m_2",1,0.674
"short cue","R_1g6KjG4gA3vEJF7","dual feature","Mismatch","sim_conj_gs_mm_1",1,0.961
"short cue","R_1g6KjG4gA3vEJF7","dual feature","Mismatch","sim_conj_gs_mm_2",1,2.533
"short cue","R_1g6KjG4gA3vEJF7","dual feature","Match","sim_conj_rd_m_1",1,1.056
"short cue","R_1g6KjG4gA3vEJF7","dual feature","Match","sim_conj_rd_m_2",1,1.097
"short cue","R_1g6KjG4gA3vEJF7","dual feature","Mismatch","sim_conj_rd_mm_1",1,1.213
"short cue","R_1g6KjG4gA3vEJF7","dual feature","Mismatch","sim_conj_rd_mm_2",1,0.543
"short cue","R_1g6KjG4gA3vEJF7","dual feature","Match","sim_conj_rs_m_1",1,0.849
"short cue","R_1g6KjG4gA3vEJF7","dual feature","Match","sim_conj_rs_m_2",1,0.752
"short cue","R_1g6KjG4gA3vEJF7","dual feature","Mismatch","sim_conj_rs_mm_1",1,0.611
"short cue","R_1g6KjG4gA3vEJF7","dual feature","Mismatch","sim_conj_rs_mm_2",0,0.946
"short cue","R_1g6KjG4gA3vEJF7","single feature","Match","sim_sing_gd_m_1",1,0.703
"short cue","R_1g6KjG4gA3vEJF7","single feature","Match","sim_sing_gd_m_2",1,0.772
"short cue","R_1g6KjG4gA3vEJF7","single feature","Mismatch","sim_sing_gd_mm_1",1,0.463
"short cue","R_1g6KjG4gA3vEJF7","single feature","Mismatch","sim_sing_gd_mm_2",1,0.932
"short cue","R_1g6KjG4gA3vEJF7","single feature","Match","sim_sing_gs_m_1",1,1.255
"short cue","R_1g6KjG4gA3vEJF7","single feature","Match","sim_sing_gs_m_2",1,0.747
"short cue","R_1g6KjG4gA3vEJF7","single feature","Mismatch","sim_sing_gs_mm_1",1,0.493
"short cue","R_1g6KjG4gA3vEJF7","single feature","Mismatch","sim_sing_gs_mm_2",1,1.028
"short cue","R_1g6KjG4gA3vEJF7","single feature","Match","sim_sing_rd_m_1",1,0.94
"short cue","R_1g6KjG4gA3vEJF7","single feature","Match","sim_sing_rd_m_2",1,1.255
"short cue","R_1g6KjG4gA3vEJF7","single feature","Mismatch","sim_sing_rd_mm_1",1,0.844
"short cue","R_1g6KjG4gA3vEJF7","single feature","Mismatch","sim_sing_rd_mm_2",1,1.868
"short cue","R_1g6KjG4gA3vEJF7","single feature","Match","sim_sing_rs_m_1",1,0.474
"short cue","R_1g6KjG4gA3vEJF7","single feature","Match","sim_sing_rs_m_2",1,0.973
"short cue","R_1g6KjG4gA3vEJF7","single feature","Mismatch","sim_sing_rs_mm_1",1,1.533
"short cue","R_1g6KjG4gA3vEJF7","single feature","Mismatch","sim_sing_rs_mm_2",1,0.452
"short cue","R_1gHKNsWNE1ugMUa","dual feature","Match","sim_conj_gd_m_1",1,0.778
"short cue","R_1gHKNsWNE1ugMUa","dual feature","Match","sim_conj_gd_m_2",1,1.324
"short cue","R_1gHKNsWNE1ugMUa","dual feature","Mismatch","sim_conj_gd_mm_1",1,1.075
"short cue","R_1gHKNsWNE1ugMUa","dual feature","Mismatch","sim_conj_gd_mm_2",1,1.001
"short cue","R_1gHKNsWNE1ugMUa","dual feature","Match","sim_conj_gs_m_1",1,1.2
"short cue","R_1gHKNsWNE1ugMUa","dual feature","Match","sim_conj_gs_m_2",1,0.799
"short cue","R_1gHKNsWNE1ugMUa","dual feature","Mismatch","sim_conj_gs_mm_1",1,0.688
"short cue","R_1gHKNsWNE1ugMUa","dual feature","Mismatch","sim_conj_gs_mm_2",1,1.104
"short cue","R_1gHKNsWNE1ugMUa","dual feature","Match","sim_conj_rd_m_1",1,1.601
"short cue","R_1gHKNsWNE1ugMUa","dual feature","Match","sim_conj_rd_m_2",1,0.65
"short cue","R_1gHKNsWNE1ugMUa","dual feature","Mismatch","sim_conj_rd_mm_1",1,1.042
"short cue","R_1gHKNsWNE1ugMUa","dual feature","Mismatch","sim_conj_rd_mm_2",1,1.086
"short cue","R_1gHKNsWNE1ugMUa","dual feature","Match","sim_conj_rs_m_1",1,1.104
"short cue","R_1gHKNsWNE1ugMUa","dual feature","Match","sim_conj_rs_m_2",1,1.419
"short cue","R_1gHKNsWNE1ugMUa","dual feature","Mismatch","sim_conj_rs_mm_1",1,2.269
"short cue","R_1gHKNsWNE1ugMUa","dual feature","Mismatch","sim_conj_rs_mm_2",1,0.972
"short cue","R_1gHKNsWNE1ugMUa","single feature","Match","sim_sing_gd_m_1",1,1.204
"short cue","R_1gHKNsWNE1ugMUa","single feature","Match","sim_sing_gd_m_2",1,1.388
"short cue","R_1gHKNsWNE1ugMUa","single feature","Mismatch","sim_sing_gd_mm_1",1,1.489
"short cue","R_1gHKNsWNE1ugMUa","single feature","Mismatch","sim_sing_gd_mm_2",1,1.34
"short cue","R_1gHKNsWNE1ugMUa","single feature","Match","sim_sing_gs_m_1",1,1.518
"short cue","R_1gHKNsWNE1ugMUa","single feature","Match","sim_sing_gs_m_2",1,1.622
"short cue","R_1gHKNsWNE1ugMUa","single feature","Mismatch","sim_sing_gs_mm_1",1,1.217
"short cue","R_1gHKNsWNE1ugMUa","single feature","Mismatch","sim_sing_gs_mm_2",0,1.707
"short cue","R_1gHKNsWNE1ugMUa","single feature","Match","sim_sing_rd_m_1",1,1.876
"short cue","R_1gHKNsWNE1ugMUa","single feature","Match","sim_sing_rd_m_2",1,1.282
"short cue","R_1gHKNsWNE1ugMUa","single feature","Mismatch","sim_sing_rd_mm_1",1,1.256
"short cue","R_1gHKNsWNE1ugMUa","single feature","Mismatch","sim_sing_rd_mm_2",1,1.619
"short cue","R_1gHKNsWNE1ugMUa","single feature","Match","sim_sing_rs_m_1",1,1.218
"short cue","R_1gHKNsWNE1ugMUa","single feature","Match","sim_sing_rs_m_2",1,1.305
"short cue","R_1gHKNsWNE1ugMUa","single feature","Mismatch","sim_sing_rs_mm_1",1,1.062
"short cue","R_1gHKNsWNE1ugMUa","single feature","Mismatch","sim_sing_rs_mm_2",0,1.122
"short cue","R_1HkLtKPGeWEXFwg","dual feature","Match","sim_conj_gd_m_1",1,0.948
"short cue","R_1HkLtKPGeWEXFwg","dual feature","Match","sim_conj_gd_m_2",1,0.847
"short cue","R_1HkLtKPGeWEXFwg","dual feature","Mismatch","sim_conj_gd_mm_1",1,0.627
"short cue","R_1HkLtKPGeWEXFwg","dual feature","Mismatch","sim_conj_gd_mm_2",1,0.615
"short cue","R_1HkLtKPGeWEXFwg","dual feature","Match","sim_conj_gs_m_1",1,0.766
"short cue","R_1HkLtKPGeWEXFwg","dual feature","Match","sim_conj_gs_m_2",1,0.974
"short cue","R_1HkLtKPGeWEXFwg","dual feature","Mismatch","sim_conj_gs_mm_1",1,0.869
"short cue","R_1HkLtKPGeWEXFwg","dual feature","Mismatch","sim_conj_gs_mm_2",1,0.607
"short cue","R_1HkLtKPGeWEXFwg","dual feature","Match","sim_conj_rd_m_1",1,0.724
"short cue","R_1HkLtKPGeWEXFwg","dual feature","Match","sim_conj_rd_m_2",1,1.113
"short cue","R_1HkLtKPGeWEXFwg","dual feature","Mismatch","sim_conj_rd_mm_1",1,0.83
"short cue","R_1HkLtKPGeWEXFwg","dual feature","Mismatch","sim_conj_rd_mm_2",1,0.792
"short cue","R_1HkLtKPGeWEXFwg","dual feature","Match","sim_conj_rs_m_1",1,1.099
"short cue","R_1HkLtKPGeWEXFwg","dual feature","Match","sim_conj_rs_m_2",1,0.774
"short cue","R_1HkLtKPGeWEXFwg","dual feature","Mismatch","sim_conj_rs_mm_1",1,0.817
"short cue","R_1HkLtKPGeWEXFwg","dual feature","Mismatch","sim_conj_rs_mm_2",1,0.852
"short cue","R_1HkLtKPGeWEXFwg","single feature","Match","sim_sing_gd_m_1",1,1.318
"short cue","R_1HkLtKPGeWEXFwg","single feature","Match","sim_sing_gd_m_2",1,0.695
"short cue","R_1HkLtKPGeWEXFwg","single feature","Mismatch","sim_sing_gd_mm_1",1,1.054
"short cue","R_1HkLtKPGeWEXFwg","single feature","Mismatch","sim_sing_gd_mm_2",1,1.41
"short cue","R_1HkLtKPGeWEXFwg","single feature","Match","sim_sing_gs_m_1",1,0.636
"short cue","R_1HkLtKPGeWEXFwg","single feature","Match","sim_sing_gs_m_2",1,0.82
"short cue","R_1HkLtKPGeWEXFwg","single feature","Mismatch","sim_sing_gs_mm_1",1,1.137
"short cue","R_1HkLtKPGeWEXFwg","single feature","Mismatch","sim_sing_gs_mm_2",1,2.7
"short cue","R_1HkLtKPGeWEXFwg","single feature","Match","sim_sing_rd_m_1",1,0.953
"short cue","R_1HkLtKPGeWEXFwg","single feature","Match","sim_sing_rd_m_2",1,1.009
"short cue","R_1HkLtKPGeWEXFwg","single feature","Mismatch","sim_sing_rd_mm_1",1,0.869
"short cue","R_1HkLtKPGeWEXFwg","single feature","Mismatch","sim_sing_rd_mm_2",1,0.782
"short cue","R_1HkLtKPGeWEXFwg","single feature","Match","sim_sing_rs_m_1",1,1.016
"short cue","R_1HkLtKPGeWEXFwg","single feature","Match","sim_sing_rs_m_2",1,1.049
"short cue","R_1HkLtKPGeWEXFwg","single feature","Mismatch","sim_sing_rs_mm_1",1,1.128
"short cue","R_1HkLtKPGeWEXFwg","single feature","Mismatch","sim_sing_rs_mm_2",1,0.891
"short cue","R_1HpZbLVjg7CUvTk","dual feature","Match","sim_conj_gd_m_1",1,1.326
"short cue","R_1HpZbLVjg7CUvTk","dual feature","Match","sim_conj_gd_m_2",1,0.972
"short cue","R_1HpZbLVjg7CUvTk","dual feature","Mismatch","sim_conj_gd_mm_1",1,1.014
"short cue","R_1HpZbLVjg7CUvTk","dual feature","Mismatch","sim_conj_gd_mm_2",1,0.837
"short cue","R_1HpZbLVjg7CUvTk","dual feature","Match","sim_conj_gs_m_1",1,0.972
"short cue","R_1HpZbLVjg7CUvTk","dual feature","Match","sim_conj_gs_m_2",0,0.623
"short cue","R_1HpZbLVjg7CUvTk","dual feature","Mismatch","sim_conj_gs_mm_1",1,0.873
"short cue","R_1HpZbLVjg7CUvTk","dual feature","Mismatch","sim_conj_gs_mm_2",1,1.107
"short cue","R_1HpZbLVjg7CUvTk","dual feature","Match","sim_conj_rd_m_1",1,1.031
"short cue","R_1HpZbLVjg7CUvTk","dual feature","Match","sim_conj_rd_m_2",1,1.07
"short cue","R_1HpZbLVjg7CUvTk","dual feature","Mismatch","sim_conj_rd_mm_1",1,0.59
"short cue","R_1HpZbLVjg7CUvTk","dual feature","Mismatch","sim_conj_rd_mm_2",1,1.341
"short cue","R_1HpZbLVjg7CUvTk","dual feature","Match","sim_conj_rs_m_1",1,0.566
"short cue","R_1HpZbLVjg7CUvTk","dual feature","Match","sim_conj_rs_m_2",1,0.599
"short cue","R_1HpZbLVjg7CUvTk","dual feature","Mismatch","sim_conj_rs_mm_1",1,1.112
"short cue","R_1HpZbLVjg7CUvTk","dual feature","Mismatch","sim_conj_rs_mm_2",1,0.66
"short cue","R_1HpZbLVjg7CUvTk","single feature","Match","sim_sing_gd_m_1",1,1.211
"short cue","R_1HpZbLVjg7CUvTk","single feature","Match","sim_sing_gd_m_2",1,1.22
"short cue","R_1HpZbLVjg7CUvTk","single feature","Mismatch","sim_sing_gd_mm_1",1,0.944
"short cue","R_1HpZbLVjg7CUvTk","single feature","Mismatch","sim_sing_gd_mm_2",1,1.09
"short cue","R_1HpZbLVjg7CUvTk","single feature","Match","sim_sing_gs_m_1",1,0.948
"short cue","R_1HpZbLVjg7CUvTk","single feature","Match","sim_sing_gs_m_2",0,0.658
"short cue","R_1HpZbLVjg7CUvTk","single feature","Mismatch","sim_sing_gs_mm_1",1,0.735
"short cue","R_1HpZbLVjg7CUvTk","single feature","Mismatch","sim_sing_gs_mm_2",1,1.176
"short cue","R_1HpZbLVjg7CUvTk","single feature","Match","sim_sing_rd_m_2",1,1.262
"short cue","R_1HpZbLVjg7CUvTk","single feature","Mismatch","sim_sing_rd_mm_1",1,0.699
"short cue","R_1HpZbLVjg7CUvTk","single feature","Match","sim_sing_rs_m_1",1,0.796
"short cue","R_1HpZbLVjg7CUvTk","single feature","Match","sim_sing_rs_m_2",0,0.787
"short cue","R_1HpZbLVjg7CUvTk","single feature","Mismatch","sim_sing_rs_mm_1",1,1.155
"short cue","R_1HpZbLVjg7CUvTk","single feature","Mismatch","sim_sing_rs_mm_2",0,0.742
"short cue","R_1hzkst2wvP8JIH4","dual feature","Match","sim_conj_gd_m_1",1,0.926
"short cue","R_1hzkst2wvP8JIH4","dual feature","Match","sim_conj_gd_m_2",1,0.793
"short cue","R_1hzkst2wvP8JIH4","dual feature","Mismatch","sim_conj_gd_mm_1",1,0.579
"short cue","R_1hzkst2wvP8JIH4","dual feature","Mismatch","sim_conj_gd_mm_2",1,1.017
"short cue","R_1hzkst2wvP8JIH4","dual feature","Match","sim_conj_gs_m_1",1,0.736
"short cue","R_1hzkst2wvP8JIH4","dual feature","Match","sim_conj_gs_m_2",1,0.435
"short cue","R_1hzkst2wvP8JIH4","dual feature","Mismatch","sim_conj_gs_mm_1",1,0.508
"short cue","R_1hzkst2wvP8JIH4","dual feature","Mismatch","sim_conj_gs_mm_2",1,0.917
"short cue","R_1hzkst2wvP8JIH4","dual feature","Match","sim_conj_rd_m_1",1,1.051
"short cue","R_1hzkst2wvP8JIH4","dual feature","Match","sim_conj_rd_m_2",1,0.764
"short cue","R_1hzkst2wvP8JIH4","dual feature","Mismatch","sim_conj_rd_mm_1",1,0.755
"short cue","R_1hzkst2wvP8JIH4","dual feature","Mismatch","sim_conj_rd_mm_2",1,0.898
"short cue","R_1hzkst2wvP8JIH4","dual feature","Match","sim_conj_rs_m_1",1,0.555
"short cue","R_1hzkst2wvP8JIH4","dual feature","Match","sim_conj_rs_m_2",1,0.75
"short cue","R_1hzkst2wvP8JIH4","dual feature","Mismatch","sim_conj_rs_mm_1",1,0.814
"short cue","R_1hzkst2wvP8JIH4","dual feature","Mismatch","sim_conj_rs_mm_2",1,0.503
"short cue","R_1hzkst2wvP8JIH4","single feature","Match","sim_sing_gd_m_1",1,0.87
"short cue","R_1hzkst2wvP8JIH4","single feature","Match","sim_sing_gd_m_2",1,0.617
"short cue","R_1hzkst2wvP8JIH4","single feature","Mismatch","sim_sing_gd_mm_1",1,0.523
"short cue","R_1hzkst2wvP8JIH4","single feature","Mismatch","sim_sing_gd_mm_2",1,0.635
"short cue","R_1hzkst2wvP8JIH4","single feature","Match","sim_sing_gs_m_1",0,0.745
"short cue","R_1hzkst2wvP8JIH4","single feature","Match","sim_sing_gs_m_2",1,0.569
"short cue","R_1hzkst2wvP8JIH4","single feature","Mismatch","sim_sing_gs_mm_1",1,0.821
"short cue","R_1hzkst2wvP8JIH4","single feature","Mismatch","sim_sing_gs_mm_2",1,0.856
"short cue","R_1hzkst2wvP8JIH4","single feature","Match","sim_sing_rd_m_1",0,0.45
"short cue","R_1hzkst2wvP8JIH4","single feature","Match","sim_sing_rd_m_2",1,0.58
"short cue","R_1hzkst2wvP8JIH4","single feature","Mismatch","sim_sing_rd_mm_1",1,0.652
"short cue","R_1hzkst2wvP8JIH4","single feature","Mismatch","sim_sing_rd_mm_2",1,0.591
"short cue","R_1hzkst2wvP8JIH4","single feature","Match","sim_sing_rs_m_1",1,0.425
"short cue","R_1hzkst2wvP8JIH4","single feature","Match","sim_sing_rs_m_2",1,0.618
"short cue","R_1hzkst2wvP8JIH4","single feature","Mismatch","sim_sing_rs_mm_1",1,0.533
"short cue","R_1hzkst2wvP8JIH4","single feature","Mismatch","sim_sing_rs_mm_2",1,0.565
"short cue","R_1IfTVw1P9JXGPqL","dual feature","Match","sim_conj_gd_m_1",1,0.465
"short cue","R_1IfTVw1P9JXGPqL","dual feature","Match","sim_conj_gd_m_2",1,0.495
"short cue","R_1IfTVw1P9JXGPqL","dual feature","Mismatch","sim_conj_gd_mm_1",1,0.521
"short cue","R_1IfTVw1P9JXGPqL","dual feature","Mismatch","sim_conj_gd_mm_2",1,0.978
"short cue","R_1IfTVw1P9JXGPqL","dual feature","Match","sim_conj_gs_m_1",1,0.542
"short cue","R_1IfTVw1P9JXGPqL","dual feature","Match","sim_conj_gs_m_2",1,0.599
"short cue","R_1IfTVw1P9JXGPqL","dual feature","Mismatch","sim_conj_gs_mm_1",1,0.698
"short cue","R_1IfTVw1P9JXGPqL","dual feature","Mismatch","sim_conj_gs_mm_2",1,0.64
"short cue","R_1IfTVw1P9JXGPqL","dual feature","Match","sim_conj_rd_m_1",1,0.681
"short cue","R_1IfTVw1P9JXGPqL","dual feature","Match","sim_conj_rd_m_2",1,0.495
"short cue","R_1IfTVw1P9JXGPqL","dual feature","Mismatch","sim_conj_rd_mm_1",1,0.866
"short cue","R_1IfTVw1P9JXGPqL","dual feature","Mismatch","sim_conj_rd_mm_2",1,1.511
"short cue","R_1IfTVw1P9JXGPqL","dual feature","Match","sim_conj_rs_m_1",1,0.85
"short cue","R_1IfTVw1P9JXGPqL","dual feature","Match","sim_conj_rs_m_2",1,0.624
"short cue","R_1IfTVw1P9JXGPqL","dual feature","Mismatch","sim_conj_rs_mm_1",1,2.304
"short cue","R_1IfTVw1P9JXGPqL","dual feature","Mismatch","sim_conj_rs_mm_2",1,1.787
"short cue","R_1IfTVw1P9JXGPqL","single feature","Match","sim_sing_gd_m_1",1,0.739
"short cue","R_1IfTVw1P9JXGPqL","single feature","Match","sim_sing_gd_m_2",1,1.47
"short cue","R_1IfTVw1P9JXGPqL","single feature","Mismatch","sim_sing_gd_mm_1",1,0.7
"short cue","R_1IfTVw1P9JXGPqL","single feature","Mismatch","sim_sing_gd_mm_2",1,0.642
"short cue","R_1IfTVw1P9JXGPqL","single feature","Match","sim_sing_gs_m_1",1,0.661
"short cue","R_1IfTVw1P9JXGPqL","single feature","Match","sim_sing_gs_m_2",1,0.759
"short cue","R_1IfTVw1P9JXGPqL","single feature","Mismatch","sim_sing_gs_mm_1",1,0.761
"short cue","R_1IfTVw1P9JXGPqL","single feature","Mismatch","sim_sing_gs_mm_2",1,0.807
"short cue","R_1IfTVw1P9JXGPqL","single feature","Match","sim_sing_rd_m_1",1,0.799
"short cue","R_1IfTVw1P9JXGPqL","single feature","Match","sim_sing_rd_m_2",1,1.007
"short cue","R_1IfTVw1P9JXGPqL","single feature","Mismatch","sim_sing_rd_mm_1",1,0.756
"short cue","R_1IfTVw1P9JXGPqL","single feature","Mismatch","sim_sing_rd_mm_2",1,0.582
"short cue","R_1IfTVw1P9JXGPqL","single feature","Match","sim_sing_rs_m_1",1,0.383
"short cue","R_1IfTVw1P9JXGPqL","single feature","Match","sim_sing_rs_m_2",1,0.98
"short cue","R_1IfTVw1P9JXGPqL","single feature","Mismatch","sim_sing_rs_mm_1",1,1.204
"short cue","R_1IfTVw1P9JXGPqL","single feature","Mismatch","sim_sing_rs_mm_2",1,0.779
"short cue","R_1imoeufCHjjazMW","dual feature","Match","sim_conj_gd_m_1",1,0.811
"short cue","R_1imoeufCHjjazMW","dual feature","Match","sim_conj_gd_m_2",1,0.631
"short cue","R_1imoeufCHjjazMW","dual feature","Mismatch","sim_conj_gd_mm_1",1,0.601
"short cue","R_1imoeufCHjjazMW","dual feature","Mismatch","sim_conj_gd_mm_2",1,1.748
"short cue","R_1imoeufCHjjazMW","dual feature","Match","sim_conj_gs_m_1",1,0.593
"short cue","R_1imoeufCHjjazMW","dual feature","Match","sim_conj_gs_m_2",1,0.472
"short cue","R_1imoeufCHjjazMW","dual feature","Mismatch","sim_conj_gs_mm_1",1,0.679
"short cue","R_1imoeufCHjjazMW","dual feature","Mismatch","sim_conj_gs_mm_2",1,0.567
"short cue","R_1imoeufCHjjazMW","dual feature","Match","sim_conj_rd_m_1",1,0.915
"short cue","R_1imoeufCHjjazMW","dual feature","Match","sim_conj_rd_m_2",1,0.376
"short cue","R_1imoeufCHjjazMW","dual feature","Mismatch","sim_conj_rd_mm_1",1,0.478
"short cue","R_1imoeufCHjjazMW","dual feature","Mismatch","sim_conj_rd_mm_2",1,0.778
"short cue","R_1imoeufCHjjazMW","dual feature","Match","sim_conj_rs_m_1",1,0.811
"short cue","R_1imoeufCHjjazMW","dual feature","Match","sim_conj_rs_m_2",1,0.841
"short cue","R_1imoeufCHjjazMW","dual feature","Mismatch","sim_conj_rs_mm_1",1,0.605
"short cue","R_1imoeufCHjjazMW","dual feature","Mismatch","sim_conj_rs_mm_2",1,0.564
"short cue","R_1imoeufCHjjazMW","single feature","Match","sim_sing_gd_m_1",1,0.45
"short cue","R_1imoeufCHjjazMW","single feature","Match","sim_sing_gd_m_2",1,0.668
"short cue","R_1imoeufCHjjazMW","single feature","Mismatch","sim_sing_gd_mm_1",1,2.316
"short cue","R_1imoeufCHjjazMW","single feature","Mismatch","sim_sing_gd_mm_2",1,0.641
"short cue","R_1imoeufCHjjazMW","single feature","Match","sim_sing_gs_m_1",1,1.118
"short cue","R_1imoeufCHjjazMW","single feature","Match","sim_sing_gs_m_2",1,1.607
"short cue","R_1imoeufCHjjazMW","single feature","Mismatch","sim_sing_gs_mm_1",1,0.467
"short cue","R_1imoeufCHjjazMW","single feature","Mismatch","sim_sing_gs_mm_2",1,0.597
"short cue","R_1imoeufCHjjazMW","single feature","Match","sim_sing_rd_m_1",1,0.942
"short cue","R_1imoeufCHjjazMW","single feature","Match","sim_sing_rd_m_2",1,0.501
"short cue","R_1imoeufCHjjazMW","single feature","Mismatch","sim_sing_rd_mm_1",1,0.438
"short cue","R_1imoeufCHjjazMW","single feature","Mismatch","sim_sing_rd_mm_2",1,0.627
"short cue","R_1imoeufCHjjazMW","single feature","Match","sim_sing_rs_m_1",1,0.375
"short cue","R_1imoeufCHjjazMW","single feature","Match","sim_sing_rs_m_2",1,0.502
"short cue","R_1imoeufCHjjazMW","single feature","Mismatch","sim_sing_rs_mm_1",1,0.556
"short cue","R_1imoeufCHjjazMW","single feature","Mismatch","sim_sing_rs_mm_2",1,0.63
"short cue","R_1IR8kofj9wFWdIF","dual feature","Match","sim_conj_gd_m_1",1,0.801
"short cue","R_1IR8kofj9wFWdIF","dual feature","Match","sim_conj_gd_m_2",1,1.368
"short cue","R_1IR8kofj9wFWdIF","dual feature","Mismatch","sim_conj_gd_mm_1",1,1.046
"short cue","R_1IR8kofj9wFWdIF","dual feature","Mismatch","sim_conj_gd_mm_2",1,1.247
"short cue","R_1IR8kofj9wFWdIF","dual feature","Match","sim_conj_gs_m_1",1,1.017
"short cue","R_1IR8kofj9wFWdIF","dual feature","Match","sim_conj_gs_m_2",1,1.347
"short cue","R_1IR8kofj9wFWdIF","dual feature","Mismatch","sim_conj_gs_mm_1",1,1.86
"short cue","R_1IR8kofj9wFWdIF","dual feature","Mismatch","sim_conj_gs_mm_2",1,1.269
"short cue","R_1IR8kofj9wFWdIF","dual feature","Match","sim_conj_rd_m_1",1,1.32
"short cue","R_1IR8kofj9wFWdIF","dual feature","Match","sim_conj_rd_m_2",1,1.28
"short cue","R_1IR8kofj9wFWdIF","dual feature","Mismatch","sim_conj_rd_mm_1",1,1.253
"short cue","R_1IR8kofj9wFWdIF","dual feature","Mismatch","sim_conj_rd_mm_2",1,1.131
"short cue","R_1IR8kofj9wFWdIF","dual feature","Match","sim_conj_rs_m_1",1,1.46
"short cue","R_1IR8kofj9wFWdIF","dual feature","Match","sim_conj_rs_m_2",1,1.327
"short cue","R_1IR8kofj9wFWdIF","dual feature","Mismatch","sim_conj_rs_mm_1",1,1.972
"short cue","R_1IR8kofj9wFWdIF","dual feature","Mismatch","sim_conj_rs_mm_2",1,1.236
"short cue","R_1IR8kofj9wFWdIF","single feature","Match","sim_sing_gd_m_1",1,0.887
"short cue","R_1IR8kofj9wFWdIF","single feature","Match","sim_sing_gd_m_2",1,1.655
"short cue","R_1IR8kofj9wFWdIF","single feature","Mismatch","sim_sing_gd_mm_1",1,1.802
"short cue","R_1IR8kofj9wFWdIF","single feature","Mismatch","sim_sing_gd_mm_2",1,1.248
"short cue","R_1IR8kofj9wFWdIF","single feature","Match","sim_sing_gs_m_1",1,1.923
"short cue","R_1IR8kofj9wFWdIF","single feature","Match","sim_sing_gs_m_2",1,1.428
"short cue","R_1IR8kofj9wFWdIF","single feature","Mismatch","sim_sing_gs_mm_1",1,0.852
"short cue","R_1IR8kofj9wFWdIF","single feature","Match","sim_sing_rd_m_1",1,2.018
"short cue","R_1IR8kofj9wFWdIF","single feature","Match","sim_sing_rd_m_2",1,1.149
"short cue","R_1IR8kofj9wFWdIF","single feature","Mismatch","sim_sing_rd_mm_2",1,1.485
"short cue","R_1IR8kofj9wFWdIF","single feature","Match","sim_sing_rs_m_1",1,1.416
"short cue","R_1IR8kofj9wFWdIF","single feature","Match","sim_sing_rs_m_2",1,0.832
"short cue","R_1IR8kofj9wFWdIF","single feature","Mismatch","sim_sing_rs_mm_1",0,1.362
"short cue","R_1IR8kofj9wFWdIF","single feature","Mismatch","sim_sing_rs_mm_2",1,1.634
"short cue","R_1ISOn43feC1HgrC","dual feature","Match","sim_conj_gd_m_1",1,0.901
"short cue","R_1ISOn43feC1HgrC","dual feature","Match","sim_conj_gd_m_2",1,2.613
"short cue","R_1ISOn43feC1HgrC","dual feature","Mismatch","sim_conj_gd_mm_1",0,0.516
"short cue","R_1ISOn43feC1HgrC","dual feature","Mismatch","sim_conj_gd_mm_2",0,0.666
"short cue","R_1ISOn43feC1HgrC","dual feature","Match","sim_conj_gs_m_1",1,0.883
"short cue","R_1ISOn43feC1HgrC","dual feature","Match","sim_conj_gs_m_2",1,0.938
"short cue","R_1ISOn43feC1HgrC","dual feature","Mismatch","sim_conj_gs_mm_1",1,0.656
"short cue","R_1ISOn43feC1HgrC","dual feature","Mismatch","sim_conj_gs_mm_2",1,0.746
"short cue","R_1ISOn43feC1HgrC","dual feature","Match","sim_conj_rd_m_2",1,1.315
"short cue","R_1ISOn43feC1HgrC","dual feature","Mismatch","sim_conj_rd_mm_1",1,1.187
"short cue","R_1ISOn43feC1HgrC","dual feature","Mismatch","sim_conj_rd_mm_2",1,1.026
"short cue","R_1ISOn43feC1HgrC","dual feature","Match","sim_conj_rs_m_1",1,0.555
"short cue","R_1ISOn43feC1HgrC","dual feature","Match","sim_conj_rs_m_2",1,2.179
"short cue","R_1ISOn43feC1HgrC","dual feature","Mismatch","sim_conj_rs_mm_1",1,1.519
"short cue","R_1ISOn43feC1HgrC","dual feature","Mismatch","sim_conj_rs_mm_2",1,0.614
"short cue","R_1ISOn43feC1HgrC","single feature","Match","sim_sing_gd_m_1",1,2.06
"short cue","R_1ISOn43feC1HgrC","single feature","Match","sim_sing_gd_m_2",1,1.323
"short cue","R_1ISOn43feC1HgrC","single feature","Mismatch","sim_sing_gd_mm_1",1,1.131
"short cue","R_1ISOn43feC1HgrC","single feature","Mismatch","sim_sing_gd_mm_2",1,0.75
"short cue","R_1ISOn43feC1HgrC","single feature","Match","sim_sing_gs_m_1",1,0.515
"short cue","R_1ISOn43feC1HgrC","single feature","Match","sim_sing_gs_m_2",1,0.631
"short cue","R_1ISOn43feC1HgrC","single feature","Mismatch","sim_sing_gs_mm_1",1,1.223
"short cue","R_1ISOn43feC1HgrC","single feature","Mismatch","sim_sing_gs_mm_2",1,1.161
"short cue","R_1ISOn43feC1HgrC","single feature","Match","sim_sing_rd_m_1",1,0.576
"short cue","R_1ISOn43feC1HgrC","single feature","Match","sim_sing_rd_m_2",1,1.314
"short cue","R_1ISOn43feC1HgrC","single feature","Mismatch","sim_sing_rd_mm_1",1,0.623
"short cue","R_1ISOn43feC1HgrC","single feature","Mismatch","sim_sing_rd_mm_2",1,1.014
"short cue","R_1ISOn43feC1HgrC","single feature","Match","sim_sing_rs_m_1",1,1.856
"short cue","R_1ISOn43feC1HgrC","single feature","Match","sim_sing_rs_m_2",1,1.068
"short cue","R_1ISOn43feC1HgrC","single feature","Mismatch","sim_sing_rs_mm_1",1,0.66
"short cue","R_1ISOn43feC1HgrC","single feature","Mismatch","sim_sing_rs_mm_2",0,0.503
"short cue","R_1IXVr7a4rbLclDy","dual feature","Match","sim_conj_gd_m_1",1,1.128
"short cue","R_1IXVr7a4rbLclDy","dual feature","Match","sim_conj_gd_m_2",1,1.856
"short cue","R_1IXVr7a4rbLclDy","dual feature","Mismatch","sim_conj_gd_mm_1",1,0.971
"short cue","R_1IXVr7a4rbLclDy","dual feature","Match","sim_conj_gs_m_1",1,1.518
"short cue","R_1IXVr7a4rbLclDy","dual feature","Mismatch","sim_conj_gs_mm_1",1,0.624
"short cue","R_1IXVr7a4rbLclDy","dual feature","Mismatch","sim_conj_gs_mm_2",1,1.274
"short cue","R_1IXVr7a4rbLclDy","dual feature","Match","sim_conj_rd_m_1",1,1.32
"short cue","R_1IXVr7a4rbLclDy","dual feature","Match","sim_conj_rd_m_2",1,1.019
"short cue","R_1IXVr7a4rbLclDy","dual feature","Mismatch","sim_conj_rd_mm_1",1,1.414
"short cue","R_1IXVr7a4rbLclDy","dual feature","Match","sim_conj_rs_m_1",1,0.912
"short cue","R_1IXVr7a4rbLclDy","dual feature","Match","sim_conj_rs_m_2",1,2.348
"short cue","R_1IXVr7a4rbLclDy","dual feature","Mismatch","sim_conj_rs_mm_1",1,1.701
"short cue","R_1IXVr7a4rbLclDy","dual feature","Mismatch","sim_conj_rs_mm_2",1,0.632
"short cue","R_1IXVr7a4rbLclDy","single feature","Match","sim_sing_gd_m_1",1,0.44
"short cue","R_1IXVr7a4rbLclDy","single feature","Match","sim_sing_gd_m_2",1,1.45
"short cue","R_1IXVr7a4rbLclDy","single feature","Mismatch","sim_sing_gd_mm_1",1,1.99
"short cue","R_1IXVr7a4rbLclDy","single feature","Mismatch","sim_sing_gd_mm_2",1,1.247
"short cue","R_1IXVr7a4rbLclDy","single feature","Match","sim_sing_gs_m_1",1,1.07
"short cue","R_1IXVr7a4rbLclDy","single feature","Match","sim_sing_gs_m_2",0,1.356
"short cue","R_1IXVr7a4rbLclDy","single feature","Mismatch","sim_sing_gs_mm_1",1,0.964
"short cue","R_1IXVr7a4rbLclDy","single feature","Mismatch","sim_sing_gs_mm_2",0,0.507
"short cue","R_1IXVr7a4rbLclDy","single feature","Match","sim_sing_rd_m_1",1,1.433
"short cue","R_1IXVr7a4rbLclDy","single feature","Match","sim_sing_rd_m_2",1,1.118
"short cue","R_1IXVr7a4rbLclDy","single feature","Mismatch","sim_sing_rd_mm_1",1,0.711
"short cue","R_1IXVr7a4rbLclDy","single feature","Mismatch","sim_sing_rd_mm_2",1,1.728
"short cue","R_1IXVr7a4rbLclDy","single feature","Match","sim_sing_rs_m_1",1,1.448
"short cue","R_1IXVr7a4rbLclDy","single feature","Match","sim_sing_rs_m_2",1,1.081
"short cue","R_1IXVr7a4rbLclDy","single feature","Mismatch","sim_sing_rs_mm_1",1,2.94
"short cue","R_1jCgwQdSLoXJHUV","dual feature","Match","sim_conj_gd_m_1",1,1.922
"short cue","R_1jCgwQdSLoXJHUV","dual feature","Match","sim_conj_gd_m_2",1,2.749
"short cue","R_1jCgwQdSLoXJHUV","dual feature","Mismatch","sim_conj_gd_mm_1",1,1.357
"short cue","R_1jCgwQdSLoXJHUV","dual feature","Mismatch","sim_conj_gd_mm_2",1,1.661
"short cue","R_1jCgwQdSLoXJHUV","dual feature","Match","sim_conj_gs_m_1",1,0.468
"short cue","R_1jCgwQdSLoXJHUV","dual feature","Match","sim_conj_gs_m_2",1,1.041
"short cue","R_1jCgwQdSLoXJHUV","dual feature","Mismatch","sim_conj_gs_mm_1",1,0.682
"short cue","R_1jCgwQdSLoXJHUV","dual feature","Mismatch","sim_conj_gs_mm_2",1,0.947
"short cue","R_1jCgwQdSLoXJHUV","dual feature","Match","sim_conj_rd_m_1",1,1.595
"short cue","R_1jCgwQdSLoXJHUV","dual feature","Match","sim_conj_rd_m_2",1,0.483
"short cue","R_1jCgwQdSLoXJHUV","dual feature","Mismatch","sim_conj_rd_mm_1",1,2.71
"short cue","R_1jCgwQdSLoXJHUV","dual feature","Mismatch","sim_conj_rd_mm_2",1,1.112
"short cue","R_1jCgwQdSLoXJHUV","dual feature","Match","sim_conj_rs_m_1",1,1.455
"short cue","R_1jCgwQdSLoXJHUV","dual feature","Match","sim_conj_rs_m_2",1,1.356
"short cue","R_1jCgwQdSLoXJHUV","dual feature","Mismatch","sim_conj_rs_mm_1",1,1.95
"short cue","R_1jCgwQdSLoXJHUV","dual feature","Mismatch","sim_conj_rs_mm_2",1,1.213
"short cue","R_1jCgwQdSLoXJHUV","single feature","Match","sim_sing_gd_m_1",1,0.431
"short cue","R_1jCgwQdSLoXJHUV","single feature","Match","sim_sing_gd_m_2",1,1.032
"short cue","R_1jCgwQdSLoXJHUV","single feature","Mismatch","sim_sing_gd_mm_1",1,0.958
"short cue","R_1jCgwQdSLoXJHUV","single feature","Mismatch","sim_sing_gd_mm_2",1,0.873
"short cue","R_1jCgwQdSLoXJHUV","single feature","Match","sim_sing_gs_m_1",1,1.431
"short cue","R_1jCgwQdSLoXJHUV","single feature","Match","sim_sing_gs_m_2",1,0.73
"short cue","R_1jCgwQdSLoXJHUV","single feature","Mismatch","sim_sing_gs_mm_1",1,1.25
"short cue","R_1jCgwQdSLoXJHUV","single feature","Mismatch","sim_sing_gs_mm_2",1,1.502
"short cue","R_1jCgwQdSLoXJHUV","single feature","Match","sim_sing_rd_m_1",1,0.734
"short cue","R_1jCgwQdSLoXJHUV","single feature","Match","sim_sing_rd_m_2",1,1.68
"short cue","R_1jCgwQdSLoXJHUV","single feature","Mismatch","sim_sing_rd_mm_1",1,1.31
"short cue","R_1jCgwQdSLoXJHUV","single feature","Mismatch","sim_sing_rd_mm_2",1,1.188
"short cue","R_1jCgwQdSLoXJHUV","single feature","Match","sim_sing_rs_m_1",1,1.0
"short cue","R_1jCgwQdSLoXJHUV","single feature","Match","sim_sing_rs_m_2",1,1.148
"short cue","R_1jCgwQdSLoXJHUV","single feature","Mismatch","sim_sing_rs_mm_1",1,1.025
"short cue","R_1jCgwQdSLoXJHUV","single feature","Mismatch","sim_sing_rs_mm_2",1,1.532
"short cue","R_1jDKVL7IiGl9Yg2","dual feature","Match","sim_conj_gd_m_2",1,1.098
"short cue","R_1jDKVL7IiGl9Yg2","dual feature","Mismatch","sim_conj_gd_mm_1",1,1.476
"short cue","R_1jDKVL7IiGl9Yg2","dual feature","Mismatch","sim_conj_gd_mm_2",1,2.037
"short cue","R_1jDKVL7IiGl9Yg2","dual feature","Match","sim_conj_gs_m_1",1,1.343
"short cue","R_1jDKVL7IiGl9Yg2","dual feature","Match","sim_conj_gs_m_2",1,1.155
"short cue","R_1jDKVL7IiGl9Yg2","dual feature","Mismatch","sim_conj_gs_mm_1",1,1.434
"short cue","R_1jDKVL7IiGl9Yg2","dual feature","Mismatch","sim_conj_gs_mm_2",1,1.392
"short cue","R_1jDKVL7IiGl9Yg2","dual feature","Match","sim_conj_rd_m_1",1,1.934
"short cue","R_1jDKVL7IiGl9Yg2","dual feature","Match","sim_conj_rd_m_2",1,1.131
"short cue","R_1jDKVL7IiGl9Yg2","dual feature","Mismatch","sim_conj_rd_mm_1",1,0.897
"short cue","R_1jDKVL7IiGl9Yg2","dual feature","Mismatch","sim_conj_rd_mm_2",1,1.047
"short cue","R_1jDKVL7IiGl9Yg2","dual feature","Match","sim_conj_rs_m_1",1,1.151
"short cue","R_1jDKVL7IiGl9Yg2","dual feature","Match","sim_conj_rs_m_2",1,1.168
"short cue","R_1jDKVL7IiGl9Yg2","dual feature","Mismatch","sim_conj_rs_mm_1",1,0.919
"short cue","R_1jDKVL7IiGl9Yg2","dual feature","Mismatch","sim_conj_rs_mm_2",1,2.28
"short cue","R_1jDKVL7IiGl9Yg2","single feature","Match","sim_sing_gd_m_2",1,1.55
"short cue","R_1jDKVL7IiGl9Yg2","single feature","Mismatch","sim_sing_gd_mm_1",0,1.024
"short cue","R_1jDKVL7IiGl9Yg2","single feature","Mismatch","sim_sing_gd_mm_2",1,1.776
"short cue","R_1jDKVL7IiGl9Yg2","single feature","Match","sim_sing_gs_m_1",1,1.123
"short cue","R_1jDKVL7IiGl9Yg2","single feature","Match","sim_sing_gs_m_2",1,0.591
"short cue","R_1jDKVL7IiGl9Yg2","single feature","Mismatch","sim_sing_gs_mm_1",1,1.617
"short cue","R_1jDKVL7IiGl9Yg2","single feature","Mismatch","sim_sing_gs_mm_2",1,2.168
"short cue","R_1jDKVL7IiGl9Yg2","single feature","Match","sim_sing_rd_m_1",1,1.234
"short cue","R_1jDKVL7IiGl9Yg2","single feature","Match","sim_sing_rd_m_2",0,1.067
"short cue","R_1jDKVL7IiGl9Yg2","single feature","Mismatch","sim_sing_rd_mm_1",1,1.165
"short cue","R_1jDKVL7IiGl9Yg2","single feature","Mismatch","sim_sing_rd_mm_2",1,1.354
"short cue","R_1jDKVL7IiGl9Yg2","single feature","Match","sim_sing_rs_m_1",1,1.094
"short cue","R_1jDKVL7IiGl9Yg2","single feature","Match","sim_sing_rs_m_2",1,2.159
"short cue","R_1jDKVL7IiGl9Yg2","single feature","Mismatch","sim_sing_rs_mm_1",1,1.172
"short cue","R_1jDKVL7IiGl9Yg2","single feature","Mismatch","sim_sing_rs_mm_2",0,2.307
"short cue","R_1jE8xih7Lg9IirX","dual feature","Match","sim_conj_gd_m_1",1,0.426
"short cue","R_1jE8xih7Lg9IirX","dual feature","Match","sim_conj_gd_m_2",1,0.56
"short cue","R_1jE8xih7Lg9IirX","dual feature","Mismatch","sim_conj_gd_mm_1",1,0.476
"short cue","R_1jE8xih7Lg9IirX","dual feature","Mismatch","sim_conj_gd_mm_2",1,0.632
"short cue","R_1jE8xih7Lg9IirX","dual feature","Match","sim_conj_gs_m_1",1,0.449
"short cue","R_1jE8xih7Lg9IirX","dual feature","Match","sim_conj_gs_m_2",1,0.402
"short cue","R_1jE8xih7Lg9IirX","dual feature","Mismatch","sim_conj_gs_mm_1",1,0.771
"short cue","R_1jE8xih7Lg9IirX","dual feature","Mismatch","sim_conj_gs_mm_2",1,0.412
"short cue","R_1jE8xih7Lg9IirX","dual feature","Match","sim_conj_rd_m_1",1,0.414
"short cue","R_1jE8xih7Lg9IirX","dual feature","Match","sim_conj_rd_m_2",1,0.366
"short cue","R_1jE8xih7Lg9IirX","dual feature","Mismatch","sim_conj_rd_mm_1",1,0.428
"short cue","R_1jE8xih7Lg9IirX","dual feature","Mismatch","sim_conj_rd_mm_2",1,0.407
"short cue","R_1jE8xih7Lg9IirX","dual feature","Match","sim_conj_rs_m_1",1,0.427
"short cue","R_1jE8xih7Lg9IirX","dual feature","Match","sim_conj_rs_m_2",1,0.38
"short cue","R_1jE8xih7Lg9IirX","dual feature","Mismatch","sim_conj_rs_mm_1",1,0.462
"short cue","R_1jE8xih7Lg9IirX","dual feature","Mismatch","sim_conj_rs_mm_2",1,0.608
"short cue","R_1jE8xih7Lg9IirX","single feature","Match","sim_sing_gd_m_1",1,0.518
"short cue","R_1jE8xih7Lg9IirX","single feature","Match","sim_sing_gd_m_2",1,0.413
"short cue","R_1jE8xih7Lg9IirX","single feature","Mismatch","sim_sing_gd_mm_1",1,0.409
"short cue","R_1jE8xih7Lg9IirX","single feature","Mismatch","sim_sing_gd_mm_2",1,0.436
"short cue","R_1jE8xih7Lg9IirX","single feature","Match","sim_sing_gs_m_1",1,0.513
"short cue","R_1jE8xih7Lg9IirX","single feature","Match","sim_sing_gs_m_2",1,0.413
"short cue","R_1jE8xih7Lg9IirX","single feature","Mismatch","sim_sing_gs_mm_1",1,0.448
"short cue","R_1jE8xih7Lg9IirX","single feature","Mismatch","sim_sing_gs_mm_2",1,0.604
"short cue","R_1jE8xih7Lg9IirX","single feature","Match","sim_sing_rd_m_1",1,1.114
"short cue","R_1jE8xih7Lg9IirX","single feature","Match","sim_sing_rd_m_2",0,0.623
"short cue","R_1jE8xih7Lg9IirX","single feature","Mismatch","sim_sing_rd_mm_1",1,0.414
"short cue","R_1jE8xih7Lg9IirX","single feature","Mismatch","sim_sing_rd_mm_2",1,0.484
"short cue","R_1jE8xih7Lg9IirX","single feature","Match","sim_sing_rs_m_1",1,0.375
"short cue","R_1jE8xih7Lg9IirX","single feature","Match","sim_sing_rs_m_2",1,0.433
"short cue","R_1jE8xih7Lg9IirX","single feature","Mismatch","sim_sing_rs_mm_1",1,0.458
"short cue","R_1jE8xih7Lg9IirX","single feature","Mismatch","sim_sing_rs_mm_2",1,0.522
"short cue","R_1jH3pdKIvdSHNIY","dual feature","Match","sim_conj_gd_m_1",0,0.609
"short cue","R_1jH3pdKIvdSHNIY","dual feature","Match","sim_conj_gd_m_2",1,0.816
"short cue","R_1jH3pdKIvdSHNIY","dual feature","Mismatch","sim_conj_gd_mm_1",1,0.659
"short cue","R_1jH3pdKIvdSHNIY","dual feature","Mismatch","sim_conj_gd_mm_2",1,0.69
"short cue","R_1jH3pdKIvdSHNIY","dual feature","Match","sim_conj_gs_m_1",1,0.581
"short cue","R_1jH3pdKIvdSHNIY","dual feature","Match","sim_conj_gs_m_2",1,0.749
"short cue","R_1jH3pdKIvdSHNIY","dual feature","Mismatch","sim_conj_gs_mm_1",1,0.769
"short cue","R_1jH3pdKIvdSHNIY","dual feature","Mismatch","sim_conj_gs_mm_2",1,0.85
"short cue","R_1jH3pdKIvdSHNIY","dual feature","Match","sim_conj_rd_m_1",1,0.563
"short cue","R_1jH3pdKIvdSHNIY","dual feature","Match","sim_conj_rd_m_2",1,0.384
"short cue","R_1jH3pdKIvdSHNIY","dual feature","Mismatch","sim_conj_rd_mm_1",1,0.549
"short cue","R_1jH3pdKIvdSHNIY","dual feature","Mismatch","sim_conj_rd_mm_2",1,0.711
"short cue","R_1jH3pdKIvdSHNIY","dual feature","Match","sim_conj_rs_m_1",1,0.578
"short cue","R_1jH3pdKIvdSHNIY","dual feature","Match","sim_conj_rs_m_2",1,0.48
"short cue","R_1jH3pdKIvdSHNIY","dual feature","Mismatch","sim_conj_rs_mm_1",1,0.97
"short cue","R_1jH3pdKIvdSHNIY","dual feature","Mismatch","sim_conj_rs_mm_2",1,0.678
"short cue","R_1jH3pdKIvdSHNIY","single feature","Match","sim_sing_gd_m_1",1,0.753
"short cue","R_1jH3pdKIvdSHNIY","single feature","Match","sim_sing_gd_m_2",1,0.813
"short cue","R_1jH3pdKIvdSHNIY","single feature","Mismatch","sim_sing_gd_mm_1",0,1.126
"short cue","R_1jH3pdKIvdSHNIY","single feature","Mismatch","sim_sing_gd_mm_2",1,0.916
"short cue","R_1jH3pdKIvdSHNIY","single feature","Match","sim_sing_gs_m_1",1,0.737
"short cue","R_1jH3pdKIvdSHNIY","single feature","Match","sim_sing_gs_m_2",1,0.66
"short cue","R_1jH3pdKIvdSHNIY","single feature","Mismatch","sim_sing_gs_mm_1",1,0.655
"short cue","R_1jH3pdKIvdSHNIY","single feature","Mismatch","sim_sing_gs_mm_2",1,0.733
"short cue","R_1jH3pdKIvdSHNIY","single feature","Match","sim_sing_rd_m_1",1,0.828
"short cue","R_1jH3pdKIvdSHNIY","single feature","Match","sim_sing_rd_m_2",1,0.872
"short cue","R_1jH3pdKIvdSHNIY","single feature","Mismatch","sim_sing_rd_mm_1",1,0.701
"short cue","R_1jH3pdKIvdSHNIY","single feature","Mismatch","sim_sing_rd_mm_2",1,0.734
"short cue","R_1jH3pdKIvdSHNIY","single feature","Match","sim_sing_rs_m_1",1,1.015
"short cue","R_1jH3pdKIvdSHNIY","single feature","Match","sim_sing_rs_m_2",1,0.563
"short cue","R_1jH3pdKIvdSHNIY","single feature","Mismatch","sim_sing_rs_mm_1",1,0.597
"short cue","R_1jH3pdKIvdSHNIY","single feature","Mismatch","sim_sing_rs_mm_2",1,0.773
"short cue","R_1jrzi2l761541zF","dual feature","Match","sim_conj_gd_m_1",1,0.514
"short cue","R_1jrzi2l761541zF","dual feature","Match","sim_conj_gd_m_2",1,0.718
"short cue","R_1jrzi2l761541zF","dual feature","Mismatch","sim_conj_gd_mm_1",1,0.73
"short cue","R_1jrzi2l761541zF","dual feature","Mismatch","sim_conj_gd_mm_2",1,0.803
"short cue","R_1jrzi2l761541zF","dual feature","Match","sim_conj_gs_m_1",1,0.751
"short cue","R_1jrzi2l761541zF","dual feature","Match","sim_conj_gs_m_2",1,0.447
"short cue","R_1jrzi2l761541zF","dual feature","Mismatch","sim_conj_gs_mm_1",1,0.599
"short cue","R_1jrzi2l761541zF","dual feature","Mismatch","sim_conj_gs_mm_2",1,0.658
"short cue","R_1jrzi2l761541zF","dual feature","Match","sim_conj_rd_m_1",1,0.923
"short cue","R_1jrzi2l761541zF","dual feature","Match","sim_conj_rd_m_2",1,0.59
"short cue","R_1jrzi2l761541zF","dual feature","Mismatch","sim_conj_rd_mm_1",1,0.718
"short cue","R_1jrzi2l761541zF","dual feature","Mismatch","sim_conj_rd_mm_2",1,0.508
"short cue","R_1jrzi2l761541zF","dual feature","Match","sim_conj_rs_m_1",1,0.729
"short cue","R_1jrzi2l761541zF","dual feature","Match","sim_conj_rs_m_2",1,0.711
"short cue","R_1jrzi2l761541zF","dual feature","Mismatch","sim_conj_rs_mm_1",1,0.53
"short cue","R_1jrzi2l761541zF","dual feature","Mismatch","sim_conj_rs_mm_2",1,0.585
"short cue","R_1jrzi2l761541zF","single feature","Match","sim_sing_gd_m_1",0,0.713
"short cue","R_1jrzi2l761541zF","single feature","Match","sim_sing_gd_m_2",1,0.559
"short cue","R_1jrzi2l761541zF","single feature","Mismatch","sim_sing_gd_mm_1",1,0.768
"short cue","R_1jrzi2l761541zF","single feature","Mismatch","sim_sing_gd_mm_2",0,0.561
"short cue","R_1jrzi2l761541zF","single feature","Match","sim_sing_gs_m_1",1,0.573
"short cue","R_1jrzi2l761541zF","single feature","Match","sim_sing_gs_m_2",1,0.499
"short cue","R_1jrzi2l761541zF","single feature","Mismatch","sim_sing_gs_mm_1",1,0.557
"short cue","R_1jrzi2l761541zF","single feature","Mismatch","sim_sing_gs_mm_2",1,0.631
"short cue","R_1jrzi2l761541zF","single feature","Match","sim_sing_rd_m_1",1,1.038
"short cue","R_1jrzi2l761541zF","single feature","Match","sim_sing_rd_m_2",1,0.562
"short cue","R_1jrzi2l761541zF","single feature","Mismatch","sim_sing_rd_mm_1",1,1.106
"short cue","R_1jrzi2l761541zF","single feature","Mismatch","sim_sing_rd_mm_2",1,1.101
"short cue","R_1jrzi2l761541zF","single feature","Match","sim_sing_rs_m_1",1,0.647
"short cue","R_1jrzi2l761541zF","single feature","Match","sim_sing_rs_m_2",1,0.448
"short cue","R_1jrzi2l761541zF","single feature","Mismatch","sim_sing_rs_mm_1",1,1.149
"short cue","R_1jrzi2l761541zF","single feature","Mismatch","sim_sing_rs_mm_2",1,0.761
"short cue","R_1K3eLYRF0WM0F1x","dual feature","Match","sim_conj_gd_m_1",1,1.173
"short cue","R_1K3eLYRF0WM0F1x","dual feature","Match","sim_conj_gd_m_2",1,0.537
"short cue","R_1K3eLYRF0WM0F1x","dual feature","Mismatch","sim_conj_gd_mm_1",1,1.221
"short cue","R_1K3eLYRF0WM0F1x","dual feature","Mismatch","sim_conj_gd_mm_2",1,1.285
"short cue","R_1K3eLYRF0WM0F1x","dual feature","Match","sim_conj_gs_m_1",1,1.301
"short cue","R_1K3eLYRF0WM0F1x","dual feature","Match","sim_conj_gs_m_2",1,0.5
"short cue","R_1K3eLYRF0WM0F1x","dual feature","Mismatch","sim_conj_gs_mm_1",1,1.516
"short cue","R_1K3eLYRF0WM0F1x","dual feature","Mismatch","sim_conj_gs_mm_2",1,1.168
"short cue","R_1K3eLYRF0WM0F1x","dual feature","Match","sim_conj_rd_m_1",1,0.641
"short cue","R_1K3eLYRF0WM0F1x","dual feature","Match","sim_conj_rd_m_2",1,1.327
"short cue","R_1K3eLYRF0WM0F1x","dual feature","Mismatch","sim_conj_rd_mm_1",1,1.264
"short cue","R_1K3eLYRF0WM0F1x","dual feature","Mismatch","sim_conj_rd_mm_2",1,1.133
"short cue","R_1K3eLYRF0WM0F1x","dual feature","Match","sim_conj_rs_m_1",1,2.157
"short cue","R_1K3eLYRF0WM0F1x","dual feature","Match","sim_conj_rs_m_2",1,1.009
"short cue","R_1K3eLYRF0WM0F1x","dual feature","Mismatch","sim_conj_rs_mm_1",1,1.213
"short cue","R_1K3eLYRF0WM0F1x","dual feature","Mismatch","sim_conj_rs_mm_2",1,2.026
"short cue","R_1K3eLYRF0WM0F1x","single feature","Match","sim_sing_gd_m_1",1,1.507
"short cue","R_1K3eLYRF0WM0F1x","single feature","Match","sim_sing_gd_m_2",1,2.477
"short cue","R_1K3eLYRF0WM0F1x","single feature","Mismatch","sim_sing_gd_mm_1",1,1.776
"short cue","R_1K3eLYRF0WM0F1x","single feature","Mismatch","sim_sing_gd_mm_2",1,1.294
"short cue","R_1K3eLYRF0WM0F1x","single feature","Match","sim_sing_gs_m_1",1,1.302
"short cue","R_1K3eLYRF0WM0F1x","single feature","Match","sim_sing_gs_m_2",1,1.548
"short cue","R_1K3eLYRF0WM0F1x","single feature","Mismatch","sim_sing_gs_mm_1",1,1.217
"short cue","R_1K3eLYRF0WM0F1x","single feature","Mismatch","sim_sing_gs_mm_2",1,2.136
"short cue","R_1K3eLYRF0WM0F1x","single feature","Match","sim_sing_rd_m_1",1,2.639
"short cue","R_1K3eLYRF0WM0F1x","single feature","Match","sim_sing_rd_m_2",1,1.054
"short cue","R_1K3eLYRF0WM0F1x","single feature","Mismatch","sim_sing_rd_mm_1",1,1.187
"short cue","R_1K3eLYRF0WM0F1x","single feature","Mismatch","sim_sing_rd_mm_2",1,1.209
"short cue","R_1K3eLYRF0WM0F1x","single feature","Match","sim_sing_rs_m_1",1,2.119
"short cue","R_1K3eLYRF0WM0F1x","single feature","Match","sim_sing_rs_m_2",1,1.404
"short cue","R_1K3eLYRF0WM0F1x","single feature","Mismatch","sim_sing_rs_mm_1",1,1.553
"short cue","R_1K3eLYRF0WM0F1x","single feature","Mismatch","sim_sing_rs_mm_2",1,1.659
"short cue","R_1K6KGucq5uhaFzv","dual feature","Match","sim_conj_gd_m_1",1,1.252
"short cue","R_1K6KGucq5uhaFzv","dual feature","Match","sim_conj_gd_m_2",1,0.864
"short cue","R_1K6KGucq5uhaFzv","dual feature","Mismatch","sim_conj_gd_mm_1",1,1.609
"short cue","R_1K6KGucq5uhaFzv","dual feature","Mismatch","sim_conj_gd_mm_2",1,2.386
"short cue","R_1K6KGucq5uhaFzv","dual feature","Match","sim_conj_gs_m_1",1,1.16
"short cue","R_1K6KGucq5uhaFzv","dual feature","Match","sim_conj_gs_m_2",1,1.515
"short cue","R_1K6KGucq5uhaFzv","dual feature","Mismatch","sim_conj_gs_mm_1",1,1.914
"short cue","R_1K6KGucq5uhaFzv","dual feature","Mismatch","sim_conj_gs_mm_2",1,2.516
"short cue","R_1K6KGucq5uhaFzv","dual feature","Match","sim_conj_rd_m_1",1,1.779
"short cue","R_1K6KGucq5uhaFzv","dual feature","Match","sim_conj_rd_m_2",1,1.095
"short cue","R_1K6KGucq5uhaFzv","dual feature","Mismatch","sim_conj_rd_mm_1",1,1.179
"short cue","R_1K6KGucq5uhaFzv","dual feature","Mismatch","sim_conj_rd_mm_2",1,1.265
"short cue","R_1K6KGucq5uhaFzv","dual feature","Match","sim_conj_rs_m_1",1,1.709
"short cue","R_1K6KGucq5uhaFzv","dual feature","Match","sim_conj_rs_m_2",1,1.852
"short cue","R_1K6KGucq5uhaFzv","dual feature","Mismatch","sim_conj_rs_mm_1",1,2.89
"short cue","R_1K6KGucq5uhaFzv","dual feature","Mismatch","sim_conj_rs_mm_2",1,1.618
"short cue","R_1K6KGucq5uhaFzv","single feature","Match","sim_sing_gd_m_1",1,1.569
"short cue","R_1K6KGucq5uhaFzv","single feature","Match","sim_sing_gd_m_2",1,1.07
"short cue","R_1K6KGucq5uhaFzv","single feature","Mismatch","sim_sing_gd_mm_1",1,0.649
"short cue","R_1K6KGucq5uhaFzv","single feature","Mismatch","sim_sing_gd_mm_2",1,1.975
"short cue","R_1K6KGucq5uhaFzv","single feature","Match","sim_sing_gs_m_1",1,0.814
"short cue","R_1K6KGucq5uhaFzv","single feature","Match","sim_sing_gs_m_2",1,1.689
"short cue","R_1K6KGucq5uhaFzv","single feature","Mismatch","sim_sing_gs_mm_2",1,1.896
"short cue","R_1K6KGucq5uhaFzv","single feature","Match","sim_sing_rd_m_1",1,1.381
"short cue","R_1K6KGucq5uhaFzv","single feature","Match","sim_sing_rd_m_2",1,1.345
"short cue","R_1K6KGucq5uhaFzv","single feature","Mismatch","sim_sing_rd_mm_1",1,1.166
"short cue","R_1K6KGucq5uhaFzv","single feature","Mismatch","sim_sing_rd_mm_2",1,1.814
"short cue","R_1K6KGucq5uhaFzv","single feature","Match","sim_sing_rs_m_1",1,1.498
"short cue","R_1K6KGucq5uhaFzv","single feature","Mismatch","sim_sing_rs_mm_1",0,0.969
"short cue","R_1K6KGucq5uhaFzv","single feature","Mismatch","sim_sing_rs_mm_2",1,1.329
"short cue","R_1K71a7Ou0dd9RDl","dual feature","Match","sim_conj_gd_m_1",1,0.816
"short cue","R_1K71a7Ou0dd9RDl","dual feature","Match","sim_conj_gd_m_2",1,1.395
"short cue","R_1K71a7Ou0dd9RDl","dual feature","Mismatch","sim_conj_gd_mm_1",1,0.791
"short cue","R_1K71a7Ou0dd9RDl","dual feature","Mismatch","sim_conj_gd_mm_2",1,1.286
"short cue","R_1K71a7Ou0dd9RDl","dual feature","Match","sim_conj_gs_m_1",1,0.827
"short cue","R_1K71a7Ou0dd9RDl","dual feature","Match","sim_conj_gs_m_2",0,0.942
"short cue","R_1K71a7Ou0dd9RDl","dual feature","Mismatch","sim_conj_gs_mm_1",1,0.712
"short cue","R_1K71a7Ou0dd9RDl","dual feature","Mismatch","sim_conj_gs_mm_2",1,0.677
"short cue","R_1K71a7Ou0dd9RDl","dual feature","Match","sim_conj_rd_m_1",1,1.23
"short cue","R_1K71a7Ou0dd9RDl","dual feature","Match","sim_conj_rd_m_2",1,0.732
"short cue","R_1K71a7Ou0dd9RDl","dual feature","Mismatch","sim_conj_rd_mm_1",1,1.307
"short cue","R_1K71a7Ou0dd9RDl","dual feature","Mismatch","sim_conj_rd_mm_2",1,0.793
"short cue","R_1K71a7Ou0dd9RDl","dual feature","Match","sim_conj_rs_m_1",1,0.86
"short cue","R_1K71a7Ou0dd9RDl","dual feature","Match","sim_conj_rs_m_2",1,0.635
"short cue","R_1K71a7Ou0dd9RDl","dual feature","Mismatch","sim_conj_rs_mm_1",1,0.976
"short cue","R_1K71a7Ou0dd9RDl","dual feature","Mismatch","sim_conj_rs_mm_2",1,1.132
"short cue","R_1K71a7Ou0dd9RDl","single feature","Match","sim_sing_gd_m_1",1,1.349
"short cue","R_1K71a7Ou0dd9RDl","single feature","Match","sim_sing_gd_m_2",1,0.993
"short cue","R_1K71a7Ou0dd9RDl","single feature","Mismatch","sim_sing_gd_mm_1",1,1.619
"short cue","R_1K71a7Ou0dd9RDl","single feature","Mismatch","sim_sing_gd_mm_2",1,1.267
"short cue","R_1K71a7Ou0dd9RDl","single feature","Match","sim_sing_gs_m_1",1,0.966
"short cue","R_1K71a7Ou0dd9RDl","single feature","Match","sim_sing_gs_m_2",1,0.794
"short cue","R_1K71a7Ou0dd9RDl","single feature","Mismatch","sim_sing_gs_mm_1",1,1.53
"short cue","R_1K71a7Ou0dd9RDl","single feature","Mismatch","sim_sing_gs_mm_2",1,0.938
"short cue","R_1K71a7Ou0dd9RDl","single feature","Match","sim_sing_rd_m_1",1,0.649
"short cue","R_1K71a7Ou0dd9RDl","single feature","Match","sim_sing_rd_m_2",1,1.08
"short cue","R_1K71a7Ou0dd9RDl","single feature","Mismatch","sim_sing_rd_mm_1",1,0.809
"short cue","R_1K71a7Ou0dd9RDl","single feature","Mismatch","sim_sing_rd_mm_2",1,0.965
"short cue","R_1K71a7Ou0dd9RDl","single feature","Match","sim_sing_rs_m_1",1,2.149
"short cue","R_1K71a7Ou0dd9RDl","single feature","Match","sim_sing_rs_m_2",1,1.12
"short cue","R_1K71a7Ou0dd9RDl","single feature","Mismatch","sim_sing_rs_mm_1",1,1.612
"short cue","R_1K71a7Ou0dd9RDl","single feature","Mismatch","sim_sing_rs_mm_2",1,1.221
"short cue","R_1KqDdYqdsxJyWIf","dual feature","Match","sim_conj_gd_m_1",1,0.882
"short cue","R_1KqDdYqdsxJyWIf","dual feature","Match","sim_conj_gd_m_2",1,0.935
"short cue","R_1KqDdYqdsxJyWIf","dual feature","Mismatch","sim_conj_gd_mm_1",1,0.498
"short cue","R_1KqDdYqdsxJyWIf","dual feature","Mismatch","sim_conj_gd_mm_2",1,0.547
"short cue","R_1KqDdYqdsxJyWIf","dual feature","Match","sim_conj_gs_m_1",1,0.456
"short cue","R_1KqDdYqdsxJyWIf","dual feature","Match","sim_conj_gs_m_2",1,0.549
"short cue","R_1KqDdYqdsxJyWIf","dual feature","Mismatch","sim_conj_gs_mm_1",1,0.599
"short cue","R_1KqDdYqdsxJyWIf","dual feature","Mismatch","sim_conj_gs_mm_2",1,0.731
"short cue","R_1KqDdYqdsxJyWIf","dual feature","Match","sim_conj_rd_m_1",1,0.942
"short cue","R_1KqDdYqdsxJyWIf","dual feature","Match","sim_conj_rd_m_2",1,0.744
"short cue","R_1KqDdYqdsxJyWIf","dual feature","Mismatch","sim_conj_rd_mm_1",1,0.502
"short cue","R_1KqDdYqdsxJyWIf","dual feature","Mismatch","sim_conj_rd_mm_2",1,0.955
"short cue","R_1KqDdYqdsxJyWIf","dual feature","Match","sim_conj_rs_m_1",1,1.081
"short cue","R_1KqDdYqdsxJyWIf","dual feature","Match","sim_conj_rs_m_2",1,0.473
"short cue","R_1KqDdYqdsxJyWIf","dual feature","Mismatch","sim_conj_rs_mm_1",1,0.599
"short cue","R_1KqDdYqdsxJyWIf","dual feature","Mismatch","sim_conj_rs_mm_2",1,0.594
"short cue","R_1KqDdYqdsxJyWIf","single feature","Match","sim_sing_gd_m_1",1,0.585
"short cue","R_1KqDdYqdsxJyWIf","single feature","Match","sim_sing_gd_m_2",1,0.542
"short cue","R_1KqDdYqdsxJyWIf","single feature","Mismatch","sim_sing_gd_mm_1",1,0.683
"short cue","R_1KqDdYqdsxJyWIf","single feature","Mismatch","sim_sing_gd_mm_2",1,0.657
"short cue","R_1KqDdYqdsxJyWIf","single feature","Match","sim_sing_gs_m_1",1,1.311
"short cue","R_1KqDdYqdsxJyWIf","single feature","Match","sim_sing_gs_m_2",1,0.699
"short cue","R_1KqDdYqdsxJyWIf","single feature","Mismatch","sim_sing_gs_mm_1",1,0.677
"short cue","R_1KqDdYqdsxJyWIf","single feature","Mismatch","sim_sing_gs_mm_2",1,0.62
"short cue","R_1KqDdYqdsxJyWIf","single feature","Match","sim_sing_rd_m_1",1,1.269
"short cue","R_1KqDdYqdsxJyWIf","single feature","Match","sim_sing_rd_m_2",1,0.763
"short cue","R_1KqDdYqdsxJyWIf","single feature","Mismatch","sim_sing_rd_mm_1",1,0.687
"short cue","R_1KqDdYqdsxJyWIf","single feature","Mismatch","sim_sing_rd_mm_2",0,0.683
"short cue","R_1KqDdYqdsxJyWIf","single feature","Match","sim_sing_rs_m_1",1,1.07
"short cue","R_1KqDdYqdsxJyWIf","single feature","Match","sim_sing_rs_m_2",1,0.527
"short cue","R_1KqDdYqdsxJyWIf","single feature","Mismatch","sim_sing_rs_mm_1",1,0.915
"short cue","R_1KqDdYqdsxJyWIf","single feature","Mismatch","sim_sing_rs_mm_2",1,0.906
"short cue","R_1LXmTvk5iLuGEaA","dual feature","Match","sim_conj_gd_m_1",1,0.674
"short cue","R_1LXmTvk5iLuGEaA","dual feature","Match","sim_conj_gd_m_2",1,0.613
"short cue","R_1LXmTvk5iLuGEaA","dual feature","Mismatch","sim_conj_gd_mm_1",1,0.643
"short cue","R_1LXmTvk5iLuGEaA","dual feature","Mismatch","sim_conj_gd_mm_2",1,0.631
"short cue","R_1LXmTvk5iLuGEaA","dual feature","Match","sim_conj_gs_m_1",1,0.581
"short cue","R_1LXmTvk5iLuGEaA","dual feature","Match","sim_conj_gs_m_2",1,0.445
"short cue","R_1LXmTvk5iLuGEaA","dual feature","Mismatch","sim_conj_gs_mm_1",1,0.551
"short cue","R_1LXmTvk5iLuGEaA","dual feature","Mismatch","sim_conj_gs_mm_2",1,0.571
"short cue","R_1LXmTvk5iLuGEaA","dual feature","Match","sim_conj_rd_m_1",1,0.91
"short cue","R_1LXmTvk5iLuGEaA","dual feature","Match","sim_conj_rd_m_2",1,1.041
"short cue","R_1LXmTvk5iLuGEaA","dual feature","Mismatch","sim_conj_rd_mm_1",1,0.682
"short cue","R_1LXmTvk5iLuGEaA","dual feature","Mismatch","sim_conj_rd_mm_2",1,0.583
"short cue","R_1LXmTvk5iLuGEaA","dual feature","Match","sim_conj_rs_m_1",1,0.488
"short cue","R_1LXmTvk5iLuGEaA","dual feature","Match","sim_conj_rs_m_2",1,0.776
"short cue","R_1LXmTvk5iLuGEaA","dual feature","Mismatch","sim_conj_rs_mm_1",1,0.853
"short cue","R_1LXmTvk5iLuGEaA","dual feature","Mismatch","sim_conj_rs_mm_2",1,0.704
"short cue","R_1LXmTvk5iLuGEaA","single feature","Match","sim_sing_gd_m_1",1,1.072
"short cue","R_1LXmTvk5iLuGEaA","single feature","Match","sim_sing_gd_m_2",1,0.812
"short cue","R_1LXmTvk5iLuGEaA","single feature","Mismatch","sim_sing_gd_mm_1",1,0.66
"short cue","R_1LXmTvk5iLuGEaA","single feature","Mismatch","sim_sing_gd_mm_2",1,0.607
"short cue","R_1LXmTvk5iLuGEaA","single feature","Match","sim_sing_gs_m_2",1,0.612
"short cue","R_1LXmTvk5iLuGEaA","single feature","Mismatch","sim_sing_gs_mm_1",1,0.785
"short cue","R_1LXmTvk5iLuGEaA","single feature","Mismatch","sim_sing_gs_mm_2",1,0.495
"short cue","R_1LXmTvk5iLuGEaA","single feature","Match","sim_sing_rd_m_1",0,1.06
"short cue","R_1LXmTvk5iLuGEaA","single feature","Match","sim_sing_rd_m_2",1,0.655
"short cue","R_1LXmTvk5iLuGEaA","single feature","Mismatch","sim_sing_rd_mm_1",1,0.902
"short cue","R_1LXmTvk5iLuGEaA","single feature","Mismatch","sim_sing_rd_mm_2",1,0.73
"short cue","R_1LXmTvk5iLuGEaA","single feature","Match","sim_sing_rs_m_1",1,0.53
"short cue","R_1LXmTvk5iLuGEaA","single feature","Match","sim_sing_rs_m_2",1,0.575
"short cue","R_1LXmTvk5iLuGEaA","single feature","Mismatch","sim_sing_rs_mm_1",1,1.232
"short cue","R_1LXmTvk5iLuGEaA","single feature","Mismatch","sim_sing_rs_mm_2",1,0.753
"short cue","R_1lzzukvJq3atYiQ","dual feature","Match","sim_conj_gd_m_1",1,1.057
"short cue","R_1lzzukvJq3atYiQ","dual feature","Match","sim_conj_gd_m_2",1,0.51
"short cue","R_1lzzukvJq3atYiQ","dual feature","Mismatch","sim_conj_gd_mm_1",1,0.71
"short cue","R_1lzzukvJq3atYiQ","dual feature","Mismatch","sim_conj_gd_mm_2",1,0.495
"short cue","R_1lzzukvJq3atYiQ","dual feature","Match","sim_conj_gs_m_1",1,0.735
"short cue","R_1lzzukvJq3atYiQ","dual feature","Match","sim_conj_gs_m_2",1,0.681
"short cue","R_1lzzukvJq3atYiQ","dual feature","Mismatch","sim_conj_gs_mm_1",1,0.581
"short cue","R_1lzzukvJq3atYiQ","dual feature","Mismatch","sim_conj_gs_mm_2",1,0.469
"short cue","R_1lzzukvJq3atYiQ","dual feature","Match","sim_conj_rd_m_1",1,0.38
"short cue","R_1lzzukvJq3atYiQ","dual feature","Match","sim_conj_rd_m_2",1,0.927
"short cue","R_1lzzukvJq3atYiQ","dual feature","Mismatch","sim_conj_rd_mm_1",1,0.69
"short cue","R_1lzzukvJq3atYiQ","dual feature","Mismatch","sim_conj_rd_mm_2",1,0.697
"short cue","R_1lzzukvJq3atYiQ","dual feature","Match","sim_conj_rs_m_1",1,0.641
"short cue","R_1lzzukvJq3atYiQ","dual feature","Match","sim_conj_rs_m_2",1,0.684
"short cue","R_1lzzukvJq3atYiQ","dual feature","Mismatch","sim_conj_rs_mm_1",1,0.723
"short cue","R_1lzzukvJq3atYiQ","dual feature","Mismatch","sim_conj_rs_mm_2",1,0.466
"short cue","R_1lzzukvJq3atYiQ","single feature","Match","sim_sing_gd_m_1",1,0.502
"short cue","R_1lzzukvJq3atYiQ","single feature","Match","sim_sing_gd_m_2",1,0.612
"short cue","R_1lzzukvJq3atYiQ","single feature","Mismatch","sim_sing_gd_mm_1",1,0.937
"short cue","R_1lzzukvJq3atYiQ","single feature","Mismatch","sim_sing_gd_mm_2",1,0.714
"short cue","R_1lzzukvJq3atYiQ","single feature","Match","sim_sing_gs_m_1",1,0.515
"short cue","R_1lzzukvJq3atYiQ","single feature","Match","sim_sing_gs_m_2",1,0.482
"short cue","R_1lzzukvJq3atYiQ","single feature","Mismatch","sim_sing_gs_mm_1",1,0.9
"short cue","R_1lzzukvJq3atYiQ","single feature","Mismatch","sim_sing_gs_mm_2",1,0.604
"short cue","R_1lzzukvJq3atYiQ","single feature","Match","sim_sing_rd_m_1",0,0.457
"short cue","R_1lzzukvJq3atYiQ","single feature","Match","sim_sing_rd_m_2",1,0.623
"short cue","R_1lzzukvJq3atYiQ","single feature","Mismatch","sim_sing_rd_mm_1",1,0.323
"short cue","R_1lzzukvJq3atYiQ","single feature","Mismatch","sim_sing_rd_mm_2",0,0.522
"short cue","R_1lzzukvJq3atYiQ","single feature","Match","sim_sing_rs_m_1",0,0.924
"short cue","R_1lzzukvJq3atYiQ","single feature","Match","sim_sing_rs_m_2",1,0.416
"short cue","R_1lzzukvJq3atYiQ","single feature","Mismatch","sim_sing_rs_mm_1",0,0.419
"short cue","R_1lzzukvJq3atYiQ","single feature","Mismatch","sim_sing_rs_mm_2",1,0.893
"short cue","R_1mC4cBupoC4tHV4","dual feature","Match","sim_conj_gd_m_1",1,0.984
"short cue","R_1mC4cBupoC4tHV4","dual feature","Match","sim_conj_gd_m_2",1,0.45
"short cue","R_1mC4cBupoC4tHV4","dual feature","Mismatch","sim_conj_gd_mm_1",1,0.631
"short cue","R_1mC4cBupoC4tHV4","dual feature","Mismatch","sim_conj_gd_mm_2",1,0.798
"short cue","R_1mC4cBupoC4tHV4","dual feature","Match","sim_conj_gs_m_1",1,0.508
"short cue","R_1mC4cBupoC4tHV4","dual feature","Match","sim_conj_gs_m_2",1,0.469
"short cue","R_1mC4cBupoC4tHV4","dual feature","Mismatch","sim_conj_gs_mm_1",1,0.504
"short cue","R_1mC4cBupoC4tHV4","dual feature","Mismatch","sim_conj_gs_mm_2",1,0.663
"short cue","R_1mC4cBupoC4tHV4","dual feature","Match","sim_conj_rd_m_1",1,0.787
"short cue","R_1mC4cBupoC4tHV4","dual feature","Match","sim_conj_rd_m_2",1,0.923
"short cue","R_1mC4cBupoC4tHV4","dual feature","Mismatch","sim_conj_rd_mm_1",1,0.769
"short cue","R_1mC4cBupoC4tHV4","dual feature","Mismatch","sim_conj_rd_mm_2",1,0.822
"short cue","R_1mC4cBupoC4tHV4","dual feature","Match","sim_conj_rs_m_1",1,0.775
"short cue","R_1mC4cBupoC4tHV4","dual feature","Match","sim_conj_rs_m_2",1,1.277
"short cue","R_1mC4cBupoC4tHV4","dual feature","Mismatch","sim_conj_rs_mm_1",1,0.711
"short cue","R_1mC4cBupoC4tHV4","dual feature","Mismatch","sim_conj_rs_mm_2",1,0.647
"short cue","R_1mC4cBupoC4tHV4","single feature","Match","sim_sing_gd_m_1",1,1.117
"short cue","R_1mC4cBupoC4tHV4","single feature","Match","sim_sing_gd_m_2",1,0.721
"short cue","R_1mC4cBupoC4tHV4","single feature","Mismatch","sim_sing_gd_mm_1",1,0.847
"short cue","R_1mC4cBupoC4tHV4","single feature","Mismatch","sim_sing_gd_mm_2",1,1.144
"short cue","R_1mC4cBupoC4tHV4","single feature","Match","sim_sing_gs_m_1",1,0.573
"short cue","R_1mC4cBupoC4tHV4","single feature","Match","sim_sing_gs_m_2",1,1.737
"short cue","R_1mC4cBupoC4tHV4","single feature","Mismatch","sim_sing_gs_mm_1",1,0.785
"short cue","R_1mC4cBupoC4tHV4","single feature","Mismatch","sim_sing_gs_mm_2",1,0.745
"short cue","R_1mC4cBupoC4tHV4","single feature","Match","sim_sing_rd_m_1",1,0.661
"short cue","R_1mC4cBupoC4tHV4","single feature","Match","sim_sing_rd_m_2",1,0.881
"short cue","R_1mC4cBupoC4tHV4","single feature","Mismatch","sim_sing_rd_mm_1",1,0.705
"short cue","R_1mC4cBupoC4tHV4","single feature","Mismatch","sim_sing_rd_mm_2",1,0.852
"short cue","R_1mC4cBupoC4tHV4","single feature","Match","sim_sing_rs_m_1",1,0.721
"short cue","R_1mC4cBupoC4tHV4","single feature","Match","sim_sing_rs_m_2",1,0.512
"short cue","R_1mC4cBupoC4tHV4","single feature","Mismatch","sim_sing_rs_mm_1",1,0.538
"short cue","R_1mC4cBupoC4tHV4","single feature","Mismatch","sim_sing_rs_mm_2",1,1.167
"short cue","R_1mIULYprIrOv92G","dual feature","Match","sim_conj_gd_m_1",1,0.623
"short cue","R_1mIULYprIrOv92G","dual feature","Match","sim_conj_gd_m_2",1,0.455
"short cue","R_1mIULYprIrOv92G","dual feature","Mismatch","sim_conj_gd_mm_1",1,0.719
"short cue","R_1mIULYprIrOv92G","dual feature","Mismatch","sim_conj_gd_mm_2",1,0.588
"short cue","R_1mIULYprIrOv92G","dual feature","Match","sim_conj_gs_m_1",1,0.498
"short cue","R_1mIULYprIrOv92G","dual feature","Match","sim_conj_gs_m_2",1,0.478
"short cue","R_1mIULYprIrOv92G","dual feature","Mismatch","sim_conj_gs_mm_1",1,0.49
"short cue","R_1mIULYprIrOv92G","dual feature","Mismatch","sim_conj_gs_mm_2",1,0.566
"short cue","R_1mIULYprIrOv92G","dual feature","Match","sim_conj_rd_m_1",1,0.904
